tx_timestamp_ms,accel_x,accel_y,accel_z,gyro_x,gyro_y,gyro_z,roll,pitch,yaw,temperature,altitude,latitude,longitude,satellites,flags_raw,battery_voltage,gnss_alt
86341,-0.05,0.02,0.02,0.18,-0.18,0.00,55.1,-93.8,304.0,48.65,-0.23,0.000000,0.000000,0,1,7.96,0.00
86646,-0.07,0.02,0.05,0.06,-0.12,0.12,55.1,-93.8,304.0,48.66,-0.36,0.000000,0.000000,0,1,7.92,0.00
86952,-0.07,0.01,0.05,-0.06,-0.12,0.00,55.1,-93.8,304.0,48.68,-0.62,0.000000,0.000000,0,1,7.92,0.00
87258,-0.07,0.00,0.07,0.12,-0.12,-0.25,55.1,-93.8,304.0,48.71,-1.13,0.000000,0.000000,0,1,7.92,0.00
87564,-0.05,0.03,0.03,-0.06,0.00,0.12,55.1,-93.8,304.0,48.75,-1.99,0.000000,0.000000,0,1,7.92,0.00
87870,-0.07,0.03,0.05,-0.06,-0.12,-0.06,55.1,-93.8,304.0,48.81,-3.00,0.000000,0.000000,0,1,7.92,0.00
88176,-0.07,0.03,0.05,0.12,0.18,0.12,55.1,-93.8,304.0,48.88,-4.07,0.000000,0.000000,0,1,7.92,0.00
88482,-0.07,0.02,0.03,-0.12,-0.06,-0.12,55.1,-93.8,304.0,48.95,-5.01,0.000000,0.000000,0,1,7.92,0.00
88788,-0.05,0.03,0.05,-0.06,-0.12,-0.18,55.1,-93.8,304.0,49.02,-5.79,0.000000,0.000000,0,1,7.93,0.00
89094,-0.07,0.02,0.02,-0.12,0.06,-0.18,55.1,-93.8,304.0,49.09,-6.39,0.000000,0.000000,0,1,7.93,0.00
89400,-0.07,0.03,0.02,-0.06,0.06,0.06,55.1,-93.8,304.0,49.15,-6.80,0.000000,0.000000,0,1,7.93,0.00
89706,-0.05,0.02,0.03,0.06,0.06,-0.12,55.1,-93.8,304.0,49.22,-7.09,0.000000,0.000000,0,1,7.92,0.00
90012,-0.05,0.02,0.02,-0.06,0.18,0.06,55.1,-93.8,304.0,49.29,-7.25,0.000000,0.000000,0,1,7.92,0.00
90318,-0.09,0.03,0.03,0.06,0.06,0.00,55.1,-93.8,304.0,49.35,-7.30,0.000000,0.000000,0,1,7.92,0.00
90624,-0.09,0.02,0.01,0.00,0.00,-0.18,55.1,-93.8,304.0,49.41,-7.29,0.000000,0.000000,0,1,7.92,0.00
90930,-0.05,0.05,0.02,-0.06,-0.06,0.37,55.1,-93.8,304.0,49.47,-7.20,0.000000,0.000000,0,1,7.92,0.00
91236,-0.07,0.05,0.07,-0.12,0.18,-0.25,55.1,-93.8,304.0,49.52,-7.09,0.000000,0.000000,0,1,7.92,0.00
91542,-0.07,0.05,0.02,-0.06,0.00,-0.18,55.1,-93.8,304.0,49.58,-6.95,0.000000,0.000000,0,1,7.92,0.00
91848,-0.05,0.02,0.03,-0.06,0.00,-0.25,55.1,-93.8,304.0,49.63,-6.79,0.000000,0.000000,0,1,7.92,0.00
92154,-0.05,0.05,0.00,0.06,0.00,0.31,55.1,-93.8,304.0,49.68,-6.62,0.000000,0.000000,0,1,7.92,0.00
92460,-0.05,0.05,0.07,-0.06,0.00,0.00,55.1,-93.8,304.0,49.73,-6.45,0.000000,0.000000,0,1,7.92,0.00
92766,-0.05,0.03,0.09,0.06,-0.06,-0.06,55.1,-93.8,304.0,49.78,-6.30,0.000000,0.000000,0,1,7.92,0.00
93072,-0.07,0.05,0.07,-0.12,0.00,-0.18,55.1,-93.8,304.0,49.82,-6.16,0.000000,0.000000,0,1,7.92,0.00
93684,-0.07,0.02,0.05,0.12,0.00,-0.12,55.1,-93.8,304.0,49.91,-5.87,0.000000,0.000000,0,1,7.91,0.00
93990,-0.09,0.02,0.05,0.00,-0.12,-0.06,55.1,-93.8,304.0,49.95,-5.73,0.000000,0.000000,0,1,7.91,0.00
94296,-0.10,0.03,0.02,0.00,0.00,0.06,55.1,-93.8,304.0,49.99,-5.60,0.000000,0.000000,0,1,7.91,0.00
94602,-0.07,0.05,0.03,-0.06,0.12,-0.18,55.1,-93.8,304.0,50.03,-5.48,0.000000,0.000000,0,1,7.91,0.00
95214,-0.05,0.02,0.03,-0.06,-0.12,0.12,55.1,-93.8,304.0,50.11,-5.27,0.000000,0.000000,0,1,7.92,0.00
95520,-0.07,0.01,0.03,0.12,0.12,0.18,55.1,-93.8,304.0,50.15,-5.15,0.000000,0.000000,0,1,7.92,0.00
95826,-0.07,0.03,0.02,0.06,-0.12,0.06,55.1,-93.8,304.0,50.19,-5.06,0.000000,0.000000,0,1,7.92,0.00
96132,-0.03,0.02,0.03,0.12,0.12,-0.18,55.1,-93.8,304.0,50.22,-4.98,0.000000,0.000000,0,1,7.92,0.00
96438,-0.05,0.03,0.05,0.00,-0.06,-0.18,55.1,-93.8,304.0,50.26,-4.90,0.000000,0.000000,0,1,7.92,0.00
96744,-0.05,0.03,0.03,0.06,0.06,-0.18,55.1,-93.8,304.0,50.29,-4.82,0.000000,0.000000,0,1,7.91,0.00
97050,-0.07,0.03,0.03,0.00,0.06,0.12,55.1,-93.8,304.0,50.33,-4.75,0.000000,0.000000,0,1,7.91,0.00
97356,-0.07,0.05,0.07,0.00,-0.06,0.00,55.1,-93.8,304.0,50.36,-4.67,0.000000,0.000000,0,1,7.91,0.00
97662,-0.05,0.01,0.01,0.06,0.12,0.06,55.1,-93.8,304.0,50.40,-4.57,0.000000,0.000000,0,1,7.92,0.00
98274,-0.05,0.05,0.01,0.00,-0.12,0.00,55.1,-93.8,304.0,50.46,-4.45,0.000000,0.000000,0,1,7.92,0.00
98580,-0.09,0.01,0.03,-0.06,0.18,-0.25,55.1,-93.8,304.0,50.50,-4.38,0.000000,0.000000,0,1,7.92,0.00
98886,-0.07,0.03,0.07,0.00,-0.06,0.00,55.1,-93.8,304.0,50.53,-4.37,0.000000,0.000000,0,1,7.92,0.00
99192,-0.05,0.00,0.07,-0.06,0.00,0.06,55.1,-93.8,304.0,50.56,-4.30,0.000000,0.000000,0,1,7.92,0.00
99498,-0.02,0.05,0.07,0.06,0.06,-0.06,55.1,-93.8,304.0,50.59,-4.25,0.000000,0.000000,0,1,7.92,0.00
99804,-0.07,0.05,0.07,0.06,0.06,0.25,55.1,-93.8,304.0,50.62,-4.20,0.000000,0.000000,0,1,7.92,0.00
100110,-0.07,0.03,0.02,-0.12,-0.06,0.00,55.1,-93.8,304.0,50.65,-4.14,0.000000,0.000000,0,1,7.92,0.00
100416,-0.07,0.00,0.00,0.12,0.06,-0.12,55.1,-93.8,304.0,50.68,-4.10,0.000000,0.000000,0,1,7.92,0.00
101028,-0.05,0.01,0.05,0.00,0.00,-0.25,55.1,-93.8,304.0,50.74,-4.02,0.000000,0.000000,0,1,7.92,0.00
101334,-0.07,0.01,0.01,-0.06,0.00,0.12,55.1,-93.8,304.0,50.77,-3.95,0.000000,0.000000,0,1,7.92,0.00
101640,-0.05,0.05,0.03,-0.06,0.00,-0.06,55.1,-93.8,304.0,50.80,-3.92,0.000000,0.000000,0,1,7.92,0.00
101946,-0.03,0.02,0.03,0.12,0.06,0.00,55.1,-93.8,304.0,50.83,-3.91,0.000000,0.000000,0,1,7.92,0.00
102558,-0.05,0.02,0.09,0.00,-0.37,-0.18,55.1,-93.8,304.0,50.88,-3.82,0.000000,0.000000,0,1,7.92,0.00
102864,-0.05,0.01,0.00,0.18,-0.06,-0.12,55.1,-93.8,304.0,50.91,-3.79,0.000000,0.000000,0,1,7.92,0.00
103476,-0.05,0.01,0.02,0.00,0.00,0.12,55.1,-93.8,304.0,50.96,-3.72,0.000000,0.000000,0,1,7.92,0.00
103782,-0.07,0.02,0.05,0.00,0.12,0.18,55.1,-93.8,304.0,50.98,-3.67,0.000000,0.000000,0,1,7.91,0.00
104088,-0.05,0.01,0.02,0.00,0.12,0.00,55.1,-93.8,304.0,51.01,-3.64,0.000000,0.000000,0,1,7.91,0.00
104394,-0.05,0.03,0.05,0.00,-0.12,-0.12,55.1,-93.8,304.0,51.04,-3.63,0.000000,0.000000,0,1,7.91,0.00
104700,-0.03,0.03,0.05,-0.12,0.00,0.00,55.1,-93.8,304.0,51.06,-3.59,0.000000,0.000000,0,1,7.91,0.00
105006,-0.05,0.02,0.05,0.06,-0.06,0.12,55.1,-93.8,304.0,51.09,-3.55,0.000000,0.000000,0,1,7.91,0.00
105618,-0.05,0.02,0.05,0.12,-0.12,0.06,55.1,-93.8,304.0,51.14,-3.48,0.000000,0.000000,0,1,7.91,0.00
105924,-0.07,0.01,0.05,0.12,0.12,0.12,55.1,-93.8,304.0,51.16,-3.46,0.000000,0.000000,0,1,7.91,0.00
106230,-0.07,0.02,0.01,0.12,-0.06,0.18,55.1,-93.8,304.0,51.19,-3.43,0.000000,0.000000,0,1,7.91,0.00
106536,-0.05,0.02,0.03,0.00,0.06,0.00,55.1,-93.8,304.0,51.21,-3.39,0.000000,0.000000,0,1,7.91,0.00
106842,-0.05,0.02,0.02,-0.06,0.06,0.18,55.1,-93.8,304.0,51.23,-3.39,0.000000,0.000000,0,1,7.91,0.00
107148,-0.05,0.02,0.03,0.12,0.00,0.12,55.1,-93.8,304.0,51.26,-3.39,0.000000,0.000000,0,1,7.91,0.00
107760,-0.05,0.01,0.01,0.00,-0.12,-0.06,55.1,-93.8,304.0,51.30,-3.34,0.000000,0.000000,0,1,7.91,0.00
108066,-0.07,0.01,0.05,0.00,-0.06,0.00,55.1,-93.8,304.0,51.33,-3.30,0.000000,0.000000,0,1,7.91,0.00
108372,-0.05,0.03,0.03,0.00,-0.06,-0.06,55.1,-93.8,304.0,51.35,-3.31,0.000000,0.000000,0,1,7.91,0.00
108678,-0.07,0.00,0.01,0.12,-0.06,-0.12,55.1,-93.8,304.0,51.37,-3.31,0.000000,0.000000,0,1,7.91,0.00
109290,-0.05,0.01,0.02,0.00,0.06,0.12,55.1,-93.8,304.0,51.42,-3.27,0.000000,0.000000,0,1,7.91,0.00
109596,-0.07,0.01,0.05,0.00,0.00,0.31,55.1,-93.8,304.0,51.44,-3.26,0.000000,0.000000,0,1,7.91,0.00
109902,-0.05,0.00,0.07,0.00,0.00,0.12,55.1,-93.8,304.0,51.47,-3.26,0.000000,0.000000,0,1,7.92,0.00
110208,-0.05,0.01,0.05,0.00,0.12,0.00,55.1,-93.8,304.0,51.49,-3.24,0.000000,0.000000,0,1,7.92,0.00
110514,-0.05,0.02,0.02,0.00,-0.25,-0.12,55.1,-93.8,304.0,51.51,-3.21,0.000000,0.000000,0,1,7.92,0.00
110820,-0.05,0.01,0.03,0.00,0.00,0.00,55.1,-93.8,304.0,51.53,-3.18,0.000000,0.000000,0,1,7.91,0.00
111432,-0.05,0.02,0.01,0.06,-0.12,0.12,55.1,-93.8,304.0,51.57,-3.17,0.000000,0.000000,0,1,7.91,0.00
111738,-0.07,0.02,0.05,-0.06,0.06,0.00,55.1,-93.8,304.0,51.60,-3.16,0.000000,0.000000,0,1,7.91,0.00
112044,-0.07,0.00,0.05,0.00,0.06,-0.18,55.1,-93.8,304.0,51.62,-3.15,0.000000,0.000000,0,1,7.92,0.00
112656,-0.07,0.03,0.02,0.00,0.00,0.18,55.1,-93.8,304.0,51.66,-3.09,0.000000,0.000000,0,1,7.92,0.00
112962,-0.07,0.02,0.03,-0.06,-0.18,0.06,55.1,-93.8,304.0,51.68,-3.10,0.000000,0.000000,0,1,7.91,0.00
113268,-0.05,0.02,0.03,-0.06,0.06,0.00,55.1,-93.8,304.0,51.70,-3.09,0.000000,0.000000,0,1,7.91,0.00
113574,-0.07,0.05,0.07,-0.12,0.12,0.06,55.1,-93.8,304.0,51.73,-3.08,0.000000,0.000000,0,1,7.91,0.00
113880,-0.05,0.00,0.05,-0.06,0.00,-0.06,55.1,-93.8,304.0,51.74,-3.07,0.000000,0.000000,0,1,7.91,0.00
114186,-0.05,0.03,0.00,0.00,0.12,0.12,55.1,-93.8,304.0,51.77,-3.05,0.000000,0.000000,0,1,7.91,0.00
114798,-0.07,0.02,0.00,0.12,0.25,0.06,55.1,-93.8,304.0,51.81,-3.03,0.000000,0.000000,0,1,7.91,0.00
115104,-0.07,0.03,0.02,0.12,0.12,-0.12,55.1,-93.8,304.0,51.83,-3.02,0.000000,0.000000,0,1,7.91,0.00
115410,-0.07,0.02,0.01,0.06,0.18,-0.06,55.1,-93.8,304.0,51.85,-3.01,0.000000,0.000000,0,1,7.91,0.00
115716,-0.07,0.03,0.03,-0.12,-0.12,-0.37,55.1,-93.8,304.0,51.87,-2.99,0.000000,0.000000,0,1,7.91,0.00
116022,-0.07,0.02,0.03,-0.06,-0.06,-0.06,55.1,-93.8,304.0,51.89,-2.99,0.000000,0.000000,0,1,7.91,0.00
116634,-0.07,0.03,0.05,-0.06,-0.06,-0.06,55.1,-93.8,304.0,51.93,-2.95,0.000000,0.000000,0,1,7.91,0.00
116940,-0.07,0.02,0.05,0.06,0.18,-0.12,55.1,-93.8,304.0,51.95,-2.95,0.000000,0.000000,0,1,7.91,0.00
117246,-0.05,0.00,0.00,-0.06,-0.06,0.06,55.1,-93.8,304.0,51.97,-2.96,0.000000,0.000000,0,1,7.91,0.00
117552,-0.05,0.00,0.02,0.00,0.18,0.18,55.1,-93.8,304.0,51.99,-2.96,0.000000,0.000000,0,1,7.91,0.00
118164,-0.05,0.01,0.02,0.12,-0.18,0.00,55.1,-93.8,304.0,52.03,-2.94,0.000000,0.000000,0,1,7.91,0.00
118470,-0.07,0.03,0.05,0.00,0.00,0.00,55.1,-93.8,304.0,52.05,-2.93,0.000000,0.000000,0,1,7.91,0.00
118776,-0.07,0.01,0.05,-0.12,-0.06,-0.12,55.1,-93.8,304.0,52.07,-2.91,0.000000,0.000000,0,1,7.91,0.00
119082,-0.07,0.03,0.05,0.00,0.00,0.00,55.1,-93.8,304.0,52.09,-2.91,0.000000,0.000000,0,1,7.90,0.00
119388,-0.07,0.00,0.05,-0.06,-0.06,0.25,55.1,-93.8,304.0,52.11,-2.90,0.000000,0.000000,0,1,7.90,0.00
119694,-0.05,0.02,0.05,0.00,0.00,0.06,55.1,-93.8,304.0,52.13,-2.89,0.000000,0.000000,0,1,7.90,0.00
120000,-0.07,0.01,0.02,-0.06,0.00,0.12,55.1,-93.8,304.0,52.14,-2.88,0.000000,0.000000,0,1,7.94,0.00
120306,-0.05,0.00,0.03,0.06,0.06,-0.12,55.1,-93.8,304.0,52.16,-2.87,0.000000,0.000000,0,1,7.94,0.00
120612,-0.07,0.01,0.02,-0.06,0.12,0.12,55.1,-93.8,304.0,52.18,-2.86,0.000000,0.000000,0,1,7.94,0.00
121224,-0.03,0.02,0.05,-0.06,0.00,0.00,55.1,-93.8,304.0,52.22,-2.85,0.000000,0.000000,0,1,7.91,0.00
121836,-0.05,0.02,0.05,-0.06,0.06,-0.18,55.1,-93.8,304.0,52.26,-2.85,0.000000,0.000000,0,1,7.91,0.00
122142,-0.07,0.02,0.07,0.00,-0.06,0.12,55.1,-93.8,304.0,52.28,-2.83,0.000000,0.000000,0,1,7.91,0.00
122448,-0.07,0.01,0.07,0.00,-0.12,0.06,55.1,-93.8,304.0,52.30,-2.82,0.000000,0.000000,0,1,7.91,0.00
122754,-0.07,0.03,0.02,0.06,-0.06,-0.06,55.1,-93.8,304.0,52.31,-2.83,0.000000,0.000000,0,1,7.91,0.00
123060,-0.05,0.05,0.05,0.12,-0.06,0.06,55.1,-93.8,304.0,52.33,-2.82,0.000000,0.000000,0,1,7.90,0.00
123366,-0.05,0.01,0.02,0.00,-0.12,0.06,55.1,-93.8,304.0,52.35,-2.81,0.000000,0.000000,0,1,7.90,0.00
123672,-0.05,0.02,0.02,0.06,0.06,0.06,55.1,-93.8,304.0,52.37,-2.81,0.000000,0.000000,0,1,7.90,0.00
123978,-0.09,0.01,0.00,0.06,0.06,0.25,55.1,-93.8,304.0,52.39,-2.80,0.000000,0.000000,0,1,7.91,0.00
124284,-0.07,0.02,0.07,0.00,-0.06,0.00,55.1,-93.8,304.0,52.41,-2.80,0.000000,0.000000,0,1,7.91,0.00
124896,-0.05,0.01,0.05,0.00,0.06,0.06,55.1,-93.8,304.0,52.44,-2.79,0.000000,0.000000,0,1,7.91,0.00
125508,-0.05,0.02,0.07,-0.06,-0.25,-0.06,55.1,-93.8,304.0,52.48,-2.81,0.000000,0.000000,0,1,7.91,0.00
125814,-0.07,0.02,0.03,0.06,-0.18,0.00,55.1,-93.8,304.0,52.50,-2.82,0.000000,0.000000,0,1,7.91,0.00
126120,-0.05,0.01,0.00,0.00,0.18,-0.12,55.1,-93.8,304.0,52.52,-2.81,0.000000,0.000000,0,1,7.91,0.00
126426,-0.05,0.02,0.02,-0.06,0.00,0.06,55.1,-93.8,304.0,52.53,-2.78,0.000000,0.000000,0,1,7.91,0.00
126732,-0.07,0.00,0.01,-0.18,0.06,0.00,55.1,-93.8,304.0,52.55,-2.75,0.000000,0.000000,0,1,7.91,0.00
127038,-0.07,0.02,0.03,0.12,0.00,-0.25,55.1,-93.8,304.0,52.57,-2.75,0.000000,0.000000,0,1,7.90,0.00
127344,-0.05,0.00,0.07,-0.06,0.18,0.12,55.1,-93.8,304.0,52.59,-2.74,0.000000,0.000000,0,1,7.90,0.00
127650,-0.05,0.03,0.03,-0.18,-0.12,0.12,55.1,-93.8,304.0,52.61,-2.73,0.000000,0.000000,0,1,7.90,0.00
127956,-0.07,0.00,0.03,0.06,0.12,-0.06,55.1,-93.8,304.0,52.62,-2.73,0.000000,0.000000,0,1,7.91,0.00
128568,-0.05,0.01,0.00,-0.06,-0.25,-0.18,55.1,-93.8,304.0,52.66,-2.74,0.000000,0.000000,0,1,7.91,0.00
128874,-0.07,0.02,0.02,0.00,0.00,0.18,55.1,-93.8,304.0,52.67,-2.74,0.000000,0.000000,0,1,7.91,0.00
129180,-0.07,0.01,0.02,0.00,-0.06,-0.06,55.1,-93.8,304.0,52.69,-2.73,0.000000,0.000000,0,1,7.91,0.00
129486,-0.07,0.00,0.02,-0.12,-0.06,-0.06,55.1,-93.8,304.0,52.71,-2.73,0.000000,0.000000,0,1,7.91,0.00
130098,-0.01,0.11,-0.01,0.43,-0.12,-0.68,55.1,-93.8,304.0,52.74,-2.76,0.000000,0.000000,0,1,7.90,0.00
130404,-0.05,0.05,0.10,-0.12,-0.18,-0.06,55.1,-93.8,304.0,52.76,-2.74,0.000000,0.000000,0,1,7.90,0.00
130710,-0.07,0.02,0.02,-0.06,0.06,0.12,55.1,-93.8,304.0,52.78,-2.75,0.000000,0.000000,0,1,7.90,0.00
131016,-0.05,0.03,0.03,0.00,0.00,0.12,55.1,-93.8,304.0,52.80,-2.75,0.000000,0.000000,0,1,7.90,0.00
131628,-0.05,0.02,0.00,0.12,0.00,0.06,55.1,-93.8,304.0,52.83,-2.74,0.000000,0.000000,0,1,7.90,0.00
131934,-0.05,0.02,0.02,0.00,-0.06,0.12,55.1,-93.8,304.0,52.85,-2.71,0.000000,0.000000,0,1,7.90,0.00
132240,-0.07,0.01,0.05,0.06,0.12,-0.31,55.1,-93.8,304.0,52.86,-2.69,0.000000,0.000000,0,1,7.90,0.00
132546,-0.05,0.01,0.07,0.00,0.18,-0.06,55.1,-93.8,304.0,52.88,-2.68,0.000000,0.000000,0,1,7.90,0.00
132852,-0.05,0.01,0.07,0.06,-0.06,-0.06,55.1,-93.8,304.0,52.90,-2.67,0.000000,0.000000,0,1,7.90,0.00
133158,-0.07,0.00,0.05,0.06,0.18,0.00,55.1,-93.8,304.0,52.91,-2.65,0.000000,0.000000,0,1,7.91,0.00
133464,-0.07,0.05,0.07,0.12,0.00,-0.06,55.1,-93.8,304.0,52.93,-2.63,0.000000,0.000000,0,1,7.91,0.00
134076,-0.05,0.02,0.00,0.06,-0.06,0.18,55.1,-93.8,304.0,52.96,-2.65,0.000000,0.000000,0,1,7.91,0.00
134382,-0.07,0.01,0.05,0.00,0.06,0.37,55.1,-93.8,304.0,52.98,-2.63,0.000000,0.000000,0,1,7.91,0.00
134688,-0.07,0.03,0.03,0.00,0.25,0.06,55.1,-93.8,304.0,52.99,-2.61,0.000000,0.000000,0,1,7.91,0.00
134994,-0.07,0.02,0.03,-0.06,0.00,0.00,55.1,-93.8,304.0,53.01,-2.60,0.000000,0.000000,0,1,7.91,0.00
135606,-0.09,0.05,0.05,0.00,-0.18,-0.06,55.1,-93.8,304.0,53.04,-2.62,0.000000,0.000000,0,1,7.91,0.00
135912,-0.07,0.00,0.07,0.06,0.18,0.00,55.1,-93.8,304.0,53.06,-2.60,0.000000,0.000000,0,1,7.91,0.00
136218,-0.07,0.02,0.07,0.00,0.12,0.06,55.1,-93.8,304.0,53.07,-2.58,0.000000,0.000000,0,1,7.91,0.00
136524,-0.07,0.05,0.05,-0.06,0.06,0.25,55.1,-93.8,304.0,53.09,-2.57,0.000000,0.000000,0,1,7.91,0.00
136830,-0.07,0.03,0.05,0.00,0.06,0.25,55.1,-93.8,304.0,53.11,-2.56,0.000000,0.000000,0,1,7.91,0.00
137136,-0.05,0.00,0.05,0.00,0.00,-0.12,55.1,-93.8,304.0,53.12,-2.55,0.000000,0.000000,0,1,7.91,0.00
137442,-0.05,0.03,0.00,-0.06,-0.18,-0.06,55.1,-93.8,304.0,53.13,-2.55,0.000000,0.000000,0,1,7.91,0.00
137748,-0.07,0.02,0.00,0.00,0.06,0.12,55.1,-93.8,304.0,53.15,-2.55,0.000000,0.000000,0,1,7.91,0.00
138054,-0.07,0.01,0.07,0.00,0.00,0.12,55.1,-93.8,304.0,53.16,-2.55,0.000000,0.000000,0,1,7.91,0.00
138666,-0.09,0.03,0.05,0.12,-0.18,0.00,55.1,-93.8,304.0,53.20,-2.54,0.000000,0.000000,0,1,7.91,0.00
139278,-0.05,0.03,0.05,0.00,0.00,-0.18,55.1,-93.8,304.0,53.23,-2.54,0.000000,0.000000,0,1,7.91,0.00
139584,-0.09,0.02,0.05,0.06,-0.06,0.06,55.1,-93.8,304.0,53.24,-2.55,0.000000,0.000000,0,1,7.91,0.00
139890,-0.05,0.09,-0.11,0.31,-0.18,-0.93,55.1,-93.8,304.0,53.26,-2.56,0.000000,0.000000,0,1,7.91,0.00
140196,-0.40,-0.23,-0.17,1.06,-4.25,1.31,49.0,-93.3,313.0,53.27,-2.60,0.000000,0.000000,0,1,7.91,0.00
140502,1.30,2.14,-0.50,-7.25,-10.81,29.68,48.8,-94.7,313.8,53.29,-2.59,0.000000,0.000000,0,1,7.91,0.00
140808,-0.74,0.19,1.46,22.18,-67.25,-2.06,48.8,-101.5,322.7,53.31,-2.56,0.000000,0.000000,0,1,7.91,0.00
141113,-1.45,-1.28,2.86,-103.62,4.75,-23.06,47.4,-104.9,322.6,53.32,-2.51,0.000000,0.000000,0,1,7.91,0.00
141419,2.24,1.38,0.40,161.00,82.06,92.62,59.8,-118.3,277.7,53.33,-2.39,0.000000,0.000000,0,1,7.91,0.00
141725,-0.80,-0.81,0.91,85.00,-87.75,43.50,69.5,163.3,212.1,53.35,-2.36,0.000000,0.000000,0,1,7.91,0.00
142337,0.03,0.41,0.40,11.43,-14.62,27.68,28.7,143.6,126.3,53.37,-2.09,0.000000,0.000000,0,1,7.91,0.00
142643,0.56,0.19,-1.45,-61.37,-36.43,23.00,14.4,153.6,226.0,53.39,-1.98,0.000000,0.000000,0,1,7.91,0.00
142949,-0.13,1.12,1.17,-11.62,63.81,-42.62,13.4,176.0,225.3,53.40,-1.80,0.000000,0.000000,0,1,7.91,0.00
143561,-0.86,1.69,1.05,154.37,29.31,7.25,1.8,130.5,40.3,53.43,-1.49,0.000000,0.000000,0,1,7.90,0.00
143867,0.35,0.40,-0.11,-70.50,19.12,37.56,1.3,102.8,50.5,53.44,-1.44,0.000000,0.000000,0,1,7.90,0.00
144173,0.51,-0.75,1.47,-110.37,-48.18,-40.50,-2.2,135.7,225.5,53.45,-1.55,0.000000,0.000000,0,1,7.91,0.00
144479,0.45,1.72,-1.09,-37.93,-14.93,-15.87,-2.4,149.0,220.9,53.47,-1.54,0.000000,0.000000,0,1,7.91,0.00
144785,-0.65,0.61,1.70,26.87,-23.56,-49.18,-7.6,151.0,208.1,53.49,-1.47,0.000000,0.000000,0,1,7.91,0.00
145091,-0.97,2.41,2.50,65.00,-19.93,-31.00,-2.3,141.3,140.8,53.50,-1.35,0.000000,0.000000,0,1,7.91,0.00
145703,-0.61,1.84,1.07,123.87,62.06,-46.31,14.2,38.8,345.1,53.52,-1.12,0.000000,0.000000,0,1,7.90,0.00
146009,1.50,-2.18,0.58,105.81,60.68,-52.37,3.9,8.8,5.0,53.53,-1.18,0.000000,0.000000,0,1,7.90,0.00
146315,0.00,-0.01,1.05,11.12,27.25,8.06,3.0,-0.9,5.0,53.54,-1.17,0.000000,0.000000,0,1,7.90,0.00
146621,0.31,0.76,-0.35,68.50,172.00,-19.75,-4.8,2.0,7.2,53.55,-1.20,0.000000,0.000000,0,1,7.90,0.00
146927,0.30,0.63,-1.01,50.56,34.31,28.06,-7.4,5.3,7.4,53.56,-1.20,0.000000,0.000000,0,1,7.90,0.00
147233,0.22,0.03,-1.20,-0.12,-1.12,40.50,-9.1,3.0,357.8,53.58,-1.22,0.000000,0.000000,0,1,7.90,0.00
147539,0.37,-0.27,-0.35,-27.56,-0.87,50.43,-9.0,3.7,344.0,53.59,-1.24,0.000000,0.000000,0,1,7.90,0.00
147845,0.47,-0.05,0.05,-55.87,-11.18,57.43,-7.3,4.5,327.4,53.60,-1.27,0.000000,0.000000,0,1,7.90,0.00
148151,0.28,-0.46,0.00,-16.81,12.37,72.87,-9.8,5.0,306.8,53.62,-1.28,0.000000,0.000000,0,1,7.91,0.00
148763,-0.09,-0.13,-0.45,0.75,-26.18,43.31,-6.0,4.2,272.0,53.64,-1.32,0.000000,0.000000,0,1,7.91,0.00
149375,-0.60,-0.49,-0.60,27.06,-44.06,8.37,-8.5,0.6,254.8,53.67,-1.29,0.000000,0.000000,0,1,7.90,0.00
149987,-0.19,-0.25,0.54,5.81,2.68,-48.31,-9.8,3.8,267.1,53.69,-1.22,0.000000,0.000000,0,1,7.90,0.00
150293,0.27,-0.13,-0.33,3.56,16.43,-62.81,-11.9,5.1,283.8,53.70,-1.21,0.000000,0.000000,0,1,7.90,0.00
150599,-2.50,-0.15,-0.70,115.12,13.18,-48.18,-7.4,-0.6,289.1,53.72,-1.30,0.000000,0.000000,0,1,7.90,0.00
151211,-0.31,0.10,-0.15,-67.50,36.68,-6.50,11.3,-15.5,283.0,53.74,-1.15,0.000000,0.000000,0,1,7.90,0.00
151517,0.27,0.30,-0.72,-9.56,-16.87,-0.56,7.1,-11.3,281.3,53.75,-1.15,0.000000,0.000000,0,1,7.90,0.00
152129,0.23,-0.61,0.05,7.68,5.06,17.62,4.1,-6.3,266.8,53.77,-1.14,0.000000,0.000000,0,1,7.90,0.00
152435,-0.45,-0.07,0.00,11.12,-0.25,4.87,3.1,-3.3,262.1,53.78,-1.11,0.000000,0.000000,0,1,7.90,0.00
153047,0.44,0.18,-0.51,-2.12,3.68,14.25,8.5,-6.5,263.4,53.80,-1.31,0.000000,0.000000,0,1,7.90,0.00
153659,-0.63,0.00,0.10,-10.75,-12.75,21.06,6.1,-4.6,255.1,53.83,-1.33,0.000000,0.000000,0,1,7.90,0.00
153965,-0.07,-0.30,0.61,-4.37,10.50,23.87,5.9,-3.3,248.9,53.84,-1.32,0.000000,0.000000,0,1,7.90,0.00
154577,-0.15,-0.12,-0.22,-5.31,-4.43,-4.00,4.8,-1.3,244.5,53.87,-1.34,0.000000,0.000000,0,1,7.91,0.00
155189,-0.25,-0.10,0.11,-12.50,10.75,-3.06,7.6,1.3,245.6,53.89,-1.32,0.000000,0.000000,0,1,7.91,0.00
155495,0.11,-0.25,0.31,3.56,25.68,-14.81,5.5,3.5,249.1,53.90,-1.28,0.000000,0.000000,0,1,7.91,0.00
156413,-0.61,-0.95,-0.56,10.87,-25.25,13.62,18.6,2.7,245.5,53.94,-1.52,0.000000,0.000000,0,1,7.90,0.00
156719,-0.18,-0.85,-0.37,-17.31,-37.68,5.93,25.1,8.6,240.0,53.95,-1.57,0.000000,0.000000,0,1,7.90,0.00
157025,-0.46,-0.18,-0.54,93.81,-96.12,-40.56,37.5,-6.8,242.0,53.96,-1.58,0.000000,0.000000,0,1,7.90,0.00
157637,-0.22,-0.57,0.11,0.12,8.18,-53.75,39.6,-33.8,259.9,53.99,-1.34,0.000000,0.000000,0,1,7.90,0.00
157943,-0.00,0.61,-0.23,4.87,1.06,-6.06,33.1,-30.0,262.7,54.00,-1.29,0.000000,0.000000,0,1,7.90,0.00
158249,-0.66,-0.15,-0.40,6.81,13.25,-12.25,31.1,-33.0,263.1,54.01,-1.23,0.000000,0.000000,0,1,7.90,0.00
158555,0.34,0.67,1.70,-18.81,0.56,35.31,34.1,-26.5,259.6,54.02,-1.24,0.000000,0.000000,0,1,7.90,0.00
158861,0.45,1.28,-0.55,-44.93,80.56,11.75,31.6,-13.1,251.6,54.03,-1.19,0.000000,0.000000,0,1,7.90,0.00
159167,-1.00,-0.45,-0.18,26.68,32.00,-17.81,14.5,-5.1,253.3,54.04,-1.16,0.000000,0.000000,0,1,7.90,0.00
159779,-0.23,0.46,-0.54,-45.62,58.00,5.37,3.2,-3.5,255.2,54.07,-1.19,0.000000,0.000000,0,1,7.90,0.00
160085,-0.00,-0.56,-0.07,4.68,13.56,-1.18,-0.8,-1.0,253.4,54.08,-1.12,0.000000,0.000000,0,1,7.90,0.00
160697,0.02,0.03,-0.13,-1.93,-4.37,2.93,-3.1,-1.5,256.1,54.10,-1.20,0.000000,0.000000,0,1,7.90,0.00
161309,-0.05,0.05,0.01,10.93,-3.37,-1.37,-4.3,0.6,258.3,54.12,-1.20,0.000000,0.000000,0,1,7.90,0.00
161615,-0.00,-0.05,-0.30,-0.81,3.25,-6.75,-4.5,0.1,259.2,54.13,-1.16,0.000000,0.000000,0,1,7.90,0.00
161921,-0.11,-0.27,-0.36,-5.06,1.25,0.62,-4.9,0.5,259.7,54.15,-1.20,0.000000,0.000000,0,1,7.90,0.00
162227,-0.03,-0.00,-0.17,12.87,-4.37,3.12,-5.3,0.4,258.6,54.16,-1.21,0.000000,0.000000,0,1,7.90,0.00
162533,-0.11,-0.17,-0.25,-7.25,-0.06,1.37,-5.5,0.9,258.0,54.17,-1.25,0.000000,0.000000,0,1,7.90,0.00
163145,-0.00,-0.25,-0.18,3.93,8.00,-12.12,-6.6,-0.3,257.0,54.19,-1.22,0.000000,0.000000,0,1,7.90,0.00
163757,0.30,-0.23,-0.01,-2.93,-4.37,-19.00,-7.5,-2.5,257.8,54.22,-1.19,0.000000,0.000000,0,1,7.90,0.00
164063,-0.27,0.03,0.79,-18.87,-7.62,3.87,-5.8,-4.0,259.7,54.23,-1.20,0.000000,0.000000,0,1,7.90,0.00
164369,0.55,-0.40,0.20,3.12,3.18,-20.25,-6.5,-1.6,261.8,54.24,-1.15,0.000000,0.000000,0,1,7.90,0.00
164675,0.98,0.51,0.09,-6.81,-52.62,-29.43,-6.4,-1.0,268.6,54.25,-1.17,0.000000,0.000000,0,1,7.90,0.00
164981,0.27,0.09,0.37,10.12,-41.31,-43.31,-2.4,-6.3,282.8,54.26,-1.10,0.000000,0.000000,0,1,7.90,0.00
165287,0.02,0.37,0.00,6.68,-21.43,-17.31,5.8,-6.0,293.5,54.27,-1.17,0.000000,0.000000,0,1,7.90,0.00
165899,0.63,-0.45,0.67,24.87,14.25,-52.87,8.6,-15.0,301.8,54.30,-1.56,0.000000,0.000000,0,1,7.90,0.00
166511,-0.97,-1.55,-0.83,6.62,-12.62,27.06,19.7,-18.6,315.3,54.32,-1.68,0.000000,0.000000,0,1,7.90,0.00
167123,1.14,-0.72,0.56,110.06,-36.81,87.56,47.2,-42.5,263.4,54.34,-1.78,0.000000,0.000000,0,1,7.90,0.00
167429,0.75,0.09,-0.83,-12.56,-25.00,2.75,60.5,-47.1,242.5,54.35,-1.72,0.000000,0.000000,0,1,7.90,0.00
168041,-1.26,-0.27,-0.44,-13.81,33.00,-5.62,58.5,-38.6,239.2,54.37,-1.84,0.000000,0.000000,0,1,7.90,0.00
168347,-0.20,-0.00,-0.18,0.25,-0.37,0.00,58.5,-38.7,239.2,54.38,-1.95,0.000000,0.000000,0,1,7.90,0.00
168653,-0.20,-0.00,-0.17,0.18,0.06,0.00,58.5,-38.9,239.2,54.39,-2.03,0.000000,0.000000,0,1,7.90,0.00
169265,-0.12,0.00,-0.15,0.18,-0.25,0.00,58.6,-39.0,239.3,54.42,-2.15,0.000000,0.000000,0,1,7.90,0.00
170183,-0.12,0.00,-0.12,0.00,0.00,-0.06,58.6,-39.0,239.3,54.45,-2.25,0.000000,0.000000,0,1,7.89,0.00
170489,-0.13,0.00,-0.15,0.00,0.12,-0.12,58.6,-39.0,239.3,54.46,-2.25,0.000000,0.000000,0,1,7.89,0.00
170795,-0.12,-0.00,-0.15,0.00,0.12,0.06,58.6,-39.0,239.3,54.47,-2.27,0.000000,0.000000,0,1,7.89,0.00
171101,-0.13,0.00,-0.15,0.12,0.12,-0.12,58.6,-39.0,239.3,54.48,-2.28,0.000000,0.000000,0,1,7.89,0.00
171713,-0.11,0.00,-0.15,-0.18,0.06,0.18,58.6,-39.0,239.3,54.51,-2.27,0.000000,0.000000,0,1,7.90,0.00
172019,-0.13,-0.00,-0.11,-0.06,-0.18,0.18,58.6,-39.0,239.3,54.52,-2.26,0.000000,0.000000,0,1,7.90,0.00
172631,-0.12,0.00,-0.15,-0.06,0.00,-0.12,58.6,-39.0,239.3,54.54,-2.25,0.000000,0.000000,0,1,7.90,0.00
172937,-0.11,-0.01,-0.15,0.00,-0.12,-0.25,58.6,-39.0,239.3,54.55,-2.19,0.000000,0.000000,0,1,7.90,0.00
173549,-0.15,-0.02,-0.15,-0.06,0.25,0.06,58.6,-39.0,239.3,54.57,-2.23,0.000000,0.000000,0,1,7.90,0.00
174161,-0.12,-0.02,-0.12,0.06,0.12,0.06,58.6,-39.0,239.3,54.59,-2.21,0.000000,0.000000,0,1,7.90,0.00
174773,1.13,0.83,-0.15,10.00,-16.93,0.62,59.1,-40.2,239.1,54.61,-2.20,0.000000,0.000000,0,1,7.90,0.00
175385,0.70,0.40,-0.43,-33.25,41.87,-75.37,-4.8,-17.2,301.2,54.63,-2.07,0.000000,0.000000,0,1,7.90,0.00
175691,0.37,-0.11,-0.25,-12.68,-0.62,-29.43,-12.2,-12.2,313.0,54.64,-2.11,0.000000,0.000000,0,1,7.89,0.00
175997,0.05,0.18,-1.28,16.75,6.50,18.12,-15.6,-9.1,313.4,54.65,-1.92,0.000000,0.000000,0,1,7.89,0.00
176609,0.54,-0.54,-1.66,-62.68,-169.75,-17.00,2.1,-3.2,303.3,54.66,-1.55,0.000000,0.000000,0,1,7.90,0.00
177221,0.50,0.34,-0.05,51.25,26.75,-15.87,5.1,-0.9,315.0,54.67,-1.12,0.000000,0.000000,0,1,7.90,0.00
177833,0.11,-0.35,-1.26,-40.56,62.68,-8.18,-2.2,-18.3,319.7,54.69,-0.99,0.000000,0.000000,0,1,7.90,0.00
178445,0.00,0.00,-0.15,29.81,9.37,-66.68,-20.8,-16.4,343.9,54.70,-1.02,0.000000,0.000000,0,1,7.90,0.00
178751,1.50,-0.28,-0.75,20.12,38.37,-23.87,-20.1,-16.2,353.5,54.70,-0.74,0.000000,0.000000,0,1,7.90,0.00
179057,-0.36,-1.86,0.37,16.43,10.12,14.62,-15.8,-26.6,355.5,54.71,-1.12,0.000000,0.000000,0,1,7.90,0.00
179363,-0.34,1.03,0.55,-4.87,6.00,5.37,-17.6,-20.1,353.1,54.73,-1.31,0.000000,0.000000,0,1,7.90,0.00
180587,0.34,-0.23,-0.46,35.12,-8.93,-8.25,-19.8,-46.5,342.1,54.75,0.02,0.000000,0.000000,0,1,7.89,0.00
180893,-0.28,0.50,0.15,31.50,-15.68,6.18,-20.1,-55.0,347.0,54.73,0.75,0.000000,0.000000,0,1,7.89,0.00
181199,1.07,-1.28,0.41,-10.62,-35.56,1.06,-17.8,-55.2,353.6,54.74,0.10,0.000000,0.000000,0,1,7.89,0.00
181505,0.83,0.11,0.18,-45.37,-35.06,24.18,-7.6,-43.8,351.0,54.75,-0.64,0.000000,0.000000,0,1,7.90,0.00
181811,1.23,0.15,0.63,-16.50,-7.06,31.37,0.5,-35.3,345.9,54.76,-1.10,0.000000,0.000000,0,1,7.90,0.00
182117,0.55,-0.77,-0.20,-23.06,7.56,13.56,2.7,-29.8,338.9,54.77,-0.80,0.000000,0.000000,0,1,7.90,0.00
182423,0.00,0.23,-1.35,-44.00,7.81,15.81,5.4,-19.5,330.0,54.76,-0.02,0.000000,0.000000,0,1,7.90,0.00
182729,0.15,0.35,-0.44,-0.43,-5.81,5.12,5.9,-15.0,327.3,54.76,-0.73,0.000000,0.000000,0,1,7.90,0.00
183035,-0.09,0.68,-0.22,1.37,8.31,6.37,3.6,-15.9,322.3,54.78,-1.30,0.000000,0.000000,0,1,7.90,0.00
183341,0.28,-0.07,0.25,-8.68,25.50,1.62,1.0,-13.5,317.7,54.79,-1.45,0.000000,0.000000,0,1,7.90,0.00
183647,0.02,0.27,0.69,-7.25,-5.25,18.93,2.8,-11.1,313.2,54.80,-1.45,0.000000,0.000000,0,1,7.90,0.00
183953,-0.35,0.11,-1.34,-1.81,16.43,-15.75,6.1,-5.8,310.3,54.81,-1.40,0.000000,0.000000,0,1,7.90,0.00
184259,0.56,-1.12,1.08,109.25,-71.00,-40.31,2.3,-14.1,317.6,54.81,-1.22,0.000000,0.000000,0,1,7.90,0.00
184565,0.15,1.15,1.01,-18.37,4.81,-29.00,-12.5,-24.0,325.6,54.82,-1.12,0.000000,0.000000,0,1,7.90,0.00
185177,0.83,-0.70,-0.55,-11.37,9.37,2.68,-40.7,-25.5,335.1,54.84,-1.22,0.000000,0.000000,0,1,7.90,0.00
185483,0.83,-0.81,-1.41,66.06,-6.56,-24.56,-46.1,-30.1,338.3,54.85,-1.16,0.000000,0.000000,0,1,7.90,0.00
185789,0.11,-1.14,-0.81,50.75,-31.06,-4.50,-49.3,-38.6,346.4,54.84,-0.15,0.000000,0.000000,0,1,7.90,0.00
186095,1.15,0.12,1.11,-12.50,-40.75,-7.87,-44.1,-39.4,355.4,54.84,-0.34,0.000000,0.000000,0,1,7.90,0.00
186401,-0.65,-0.44,0.57,35.06,-35.87,35.93,-30.2,-39.1,348.2,54.84,0.31,0.000000,0.000000,0,1,7.90,0.00
186707,0.57,-1.69,0.27,-25.37,9.00,74.50,-11.9,-32.8,333.5,54.83,0.76,0.000000,0.000000,0,1,7.90,0.00
187013,-1.54,1.85,-0.50,-58.62,-50.43,51.87,4.3,-28.6,301.6,54.82,0.93,0.000000,0.000000,0,1,7.90,0.00
187319,-0.97,-0.63,-0.86,53.62,21.87,-48.06,0.3,-18.5,305.3,54.83,-0.21,0.000000,0.000000,0,1,7.90,0.00
187931,0.55,1.00,0.54,-28.00,32.25,-43.75,-19.1,-19.2,329.8,54.86,-1.52,0.000000,0.000000,0,1,7.90,0.00
188237,0.63,-0.00,-0.40,-4.43,33.68,-14.62,-30.3,-14.8,340.1,54.87,-1.38,0.000000,0.000000,0,1,7.90,0.00
188849,-1.04,-0.03,-0.83,-3.43,-10.56,29.06,-23.5,-16.8,342.1,54.88,-1.42,0.000000,0.000000,0,1,7.89,0.00
189155,0.18,-0.07,-0.69,6.37,-0.50,-11.75,-19.6,-16.3,342.1,54.88,-0.94,0.000000,0.000000,0,1,7.89,0.00
189461,0.41,-0.83,-0.51,5.62,28.62,-24.93,-23.1,-18.5,344.4,54.89,-1.04,0.000000,0.000000,0,1,7.89,0.00
190379,0.19,-1.57,-1.35,-59.37,-15.62,29.31,-7.5,-18.1,327.0,54.91,-0.34,0.000000,0.000000,0,1,7.89,0.00
190990,-1.86,0.58,0.43,-42.81,-71.81,3.68,-12.5,-10.5,328.9,54.88,0.83,0.000000,0.000000,0,1,7.89,0.00
191296,-0.93,0.17,-1.04,-32.37,-44.18,43.56,-8.0,-11.3,323.1,54.89,0.11,0.000000,0.000000,0,1,7.89,0.00
191908,-0.52,0.01,0.73,65.06,-11.75,1.00,-3.6,-17.9,331.6,54.88,-0.30,0.000000,0.000000,0,1,7.90,0.00
192214,0.75,0.20,-0.40,-17.18,9.56,-38.31,-0.9,-14.5,332.7,54.89,-0.70,0.000000,0.000000,0,1,7.90,0.00
192520,-0.18,0.80,0.58,-15.37,7.31,-0.50,-1.6,-12.9,340.2,54.91,-1.44,0.000000,0.000000,0,1,7.90,0.00
193132,0.07,-0.18,0.79,-6.31,-7.50,5.87,2.0,-1.1,341.2,54.93,-1.98,0.000000,0.000000,0,1,7.89,0.00
193438,-0.58,-0.56,2.40,-2.56,14.31,2.50,-2.4,0.1,338.0,54.94,-2.02,0.000000,0.000000,0,1,7.89,0.00
194050,0.45,0.15,-0.37,13.50,12.87,14.37,-2.8,2.5,337.1,54.95,-1.92,0.000000,0.000000,0,1,7.89,0.00
194356,0.36,0.31,-0.18,8.68,-0.12,0.81,-3.1,0.8,335.9,54.95,-1.90,0.000000,0.000000,0,1,7.89,0.00
194968,0.30,-0.09,-0.19,3.12,-0.43,0.00,-2.8,0.8,335.9,54.97,-1.86,0.000000,0.000000,0,1,7.89,0.00
195274,0.12,0.43,-0.18,-6.62,0.37,-0.25,-2.7,0.7,335.9,54.97,-1.93,0.000000,0.000000,0,1,7.89,0.00
195580,0.27,0.31,0.00,3.68,0.18,0.12,-2.6,0.5,335.9,54.98,-2.00,0.000000,0.000000,0,1,7.89,0.00
195886,0.15,-0.37,-0.05,-6.43,0.50,-0.50,-2.6,0.5,335.9,54.99,-2.02,0.000000,0.000000,0,1,7.89,0.00
196192,0.01,0.07,-0.09,1.00,-0.37,0.06,-2.5,0.5,335.9,55.00,-2.05,0.000000,0.000000,0,1,7.89,0.00
196498,0.15,0.00,-0.07,-0.87,-0.06,0.00,-2.4,0.5,335.9,55.01,-2.07,0.000000,0.000000,0,1,7.89,0.00
196804,0.11,0.03,-0.10,0.00,-0.18,-0.12,-2.3,0.4,335.9,55.01,-2.11,0.000000,0.000000,0,1,7.90,0.00
197110,0.07,-0.00,-0.11,-0.25,0.43,-0.06,-2.2,0.4,335.9,55.03,-2.10,0.000000,0.000000,0,1,7.90,0.00
197416,0.03,-0.01,-0.07,-0.56,-0.06,-0.18,-2.2,0.4,335.9,55.03,-2.08,0.000000,0.000000,0,1,7.90,0.00
198028,0.05,0.07,-0.10,0.43,0.06,0.00,-2.2,0.4,335.9,55.05,-2.08,0.000000,0.000000,0,1,7.90,0.00
198640,0.10,-0.01,-0.07,-0.43,0.06,0.06,-2.2,0.4,335.9,55.07,-2.14,0.000000,0.000000,0,1,7.89,0.00
198946,0.05,0.00,-0.03,-0.56,-0.06,-0.18,-2.2,0.4,335.9,55.08,-2.13,0.000000,0.000000,0,1,7.89,0.00
199252,0.07,0.03,-0.11,0.18,0.06,-0.06,-2.2,0.4,335.9,55.09,-2.06,0.000000,0.000000,0,1,7.89,0.00
199558,0.09,0.03,-0.07,0.31,-0.12,0.00,-2.2,0.4,335.9,55.09,-2.02,0.000000,0.000000,0,1,7.89,0.00
199864,0.09,0.07,-0.07,0.75,0.06,-0.06,-2.2,0.4,335.9,55.10,-1.98,0.000000,0.000000,0,1,7.89,0.00
200170,0.00,-0.01,-0.30,-2.31,0.31,-0.06,-2.1,0.7,335.9,55.11,-1.99,0.000000,0.000000,0,1,7.89,0.00
200476,-0.12,0.05,-0.40,-0.31,1.81,0.18,-2.1,0.5,335.9,55.12,-2.00,0.000000,0.000000,0,1,7.89,0.00
201088,0.17,-0.17,0.00,-5.68,0.37,-0.56,-2.1,0.4,335.9,55.13,-1.97,0.000000,0.000000,0,1,7.88,0.00
201394,0.10,-0.07,-0.09,-0.93,-0.37,-0.18,-2.1,0.4,335.9,55.14,-1.95,0.000000,0.000000,0,1,7.88,0.00
201700,0.10,0.03,-0.07,0.12,-0.25,0.06,-2.0,0.3,335.9,55.15,-1.98,0.000000,0.000000,0,1,7.89,0.00
202006,0.07,0.00,-0.11,-0.06,-0.06,-0.06,-2.0,0.3,335.9,55.16,-2.04,0.000000,0.000000,0,1,7.89,0.00
202312,0.07,0.03,-0.07,0.43,0.00,-0.06,-2.0,0.3,335.9,55.17,-2.10,0.000000,0.000000,0,1,7.89,0.00
202924,0.43,-0.30,0.30,43.06,2.00,-85.25,-2.0,0.5,341.9,55.18,-2.11,0.000000,0.000000,0,1,7.89,0.00
203230,0.00,0.52,-0.15,5.62,0.93,0.25,-1.8,0.8,348.7,55.19,-2.15,0.000000,0.000000,0,1,7.89,0.00
203536,0.69,0.81,0.20,4.12,-1.50,0.25,-1.6,1.0,350.7,55.20,-2.13,0.000000,0.000000,0,1,7.89,0.00
203842,0.07,0.02,-0.09,-0.18,0.12,-0.06,-1.6,1.0,350.7,55.21,-2.09,0.000000,0.000000,0,1,7.89,0.00
204454,0.11,0.41,-0.05,1.93,-0.31,0.12,-1.5,0.8,351.2,55.23,-2.05,0.000000,0.000000,0,1,7.89,0.00
204760,0.09,-0.09,-0.18,-0.31,-1.18,0.00,-1.5,0.8,351.2,55.23,-1.95,0.000000,0.000000,0,1,7.89,0.00
205066,0.02,-1.37,-0.55,4.68,-1.18,-16.00,-1.5,0.8,352.0,55.24,-1.93,0.000000,0.000000,0,1,7.89,0.00
205372,-0.15,0.88,0.00,0.68,0.18,-0.06,-1.5,0.7,352.8,55.25,-1.96,0.000000,0.000000,0,1,7.89,0.00
205678,0.05,-0.01,-0.09,-0.37,0.00,-0.12,-1.4,0.7,352.8,55.26,-2.08,0.000000,0.000000,0,1,7.89,0.00
205984,0.00,-0.17,-0.22,-1.81,-0.31,0.00,-1.5,0.8,353.3,55.26,-2.11,0.000000,0.000000,0,1,7.89,0.00
206290,-0.03,0.37,0.11,4.12,-0.18,0.12,-1.3,0.7,353.4,55.27,-2.03,0.000000,0.000000,0,1,7.89,0.00
206596,0.05,0.00,-0.11,-0.06,0.25,0.31,-1.3,0.6,353.4,55.28,-2.05,0.000000,0.000000,0,1,7.89,0.00
207208,0.00,0.02,-0.15,0.75,-0.31,-0.12,-1.3,0.6,353.4,55.30,-2.09,0.000000,0.000000,0,1,7.89,0.00
207820,-0.11,-0.15,-0.22,0.12,0.68,-0.06,-1.3,0.5,353.5,55.32,-2.16,0.000000,0.000000,0,1,7.89,0.00
208432,-0.27,0.34,-0.20,14.56,5.81,1.31,-1.4,0.3,353.5,55.33,-2.12,0.000000,0.000000,0,1,7.89,0.00
208738,-0.09,0.46,-0.03,1.62,0.37,-0.18,-1.6,-0.6,356.0,55.34,-2.08,0.000000,0.000000,0,1,7.89,0.00
209044,0.28,-0.12,0.10,0.75,-0.50,-3.31,-1.1,0.3,356.8,55.35,-2.06,0.000000,0.000000,0,1,7.89,0.00
209350,0.05,-0.07,-0.07,-0.37,0.00,-0.12,-1.0,0.4,356.8,55.36,-2.03,0.000000,0.000000,0,1,7.89,0.00
209962,0.01,0.01,-0.09,-0.12,-0.06,-0.06,-1.0,0.3,356.8,55.37,-2.09,0.000000,0.000000,0,1,7.89,0.00
210268,-0.51,-0.20,-0.22,2.31,-0.18,0.37,-1.0,0.2,358.0,55.38,-2.10,0.000000,0.000000,0,1,7.89,0.00
210574,0.00,-0.22,-0.12,-1.06,0.25,0.12,-0.9,0.2,359.1,55.39,-2.06,0.000000,0.000000,0,1,7.89,0.00
210880,0.00,0.01,-0.10,0.06,-0.31,0.25,-0.9,0.1,359.1,55.40,-1.98,0.000000,0.000000,0,1,7.89,0.00
211492,-0.27,0.52,-0.13,3.31,-1.37,0.37,-0.9,0.1,359.0,55.41,-1.92,0.000000,0.000000,0,1,7.89,0.00
211798,0.07,0.00,-0.07,-0.56,0.06,0.00,-0.9,0.1,359.0,55.42,-1.97,0.000000,0.000000,0,1,7.89,0.00
212410,0.03,0.00,-0.10,-0.12,-0.06,0.18,-0.9,0.1,359.0,55.44,-2.08,0.000000,0.000000,0,1,7.89,0.00
213022,0.00,0.00,-0.07,-0.12,0.06,0.37,-0.9,0.1,359.0,55.45,-1.94,0.000000,0.000000,0,1,7.89,0.00
213328,0.00,-0.02,-0.09,0.18,0.25,-0.06,-0.9,0.1,359.0,55.46,-2.01,0.000000,0.000000,0,1,7.89,0.00
213634,0.01,0.02,-0.07,0.06,-0.06,0.00,-0.9,0.1,359.0,55.47,-2.09,0.000000,0.000000,0,1,7.89,0.00
214246,0.01,0.00,-0.07,0.00,-0.18,0.00,-0.9,0.1,359.0,55.48,-2.05,0.000000,0.000000,0,1,7.89,0.00
214858,0.01,0.02,-0.07,0.12,0.06,0.00,-0.9,0.1,359.0,55.50,-2.00,0.000000,0.000000,0,1,7.89,0.00
215164,0.00,0.00,-0.05,-0.06,-0.06,-0.06,-0.9,0.1,359.0,55.51,-2.01,0.000000,0.000000,0,1,7.89,0.00
215470,0.02,0.00,-0.10,-0.06,0.00,-0.12,-0.9,0.1,359.0,55.51,-2.03,0.000000,0.000000,0,1,7.89,0.00
215776,-0.00,0.00,-0.11,-0.06,0.31,0.00,-0.9,0.1,359.0,55.52,-2.00,0.000000,0.000000,0,1,7.89,0.00
216082,0.02,0.00,-0.09,0.06,0.18,-0.12,-0.9,0.1,359.0,55.53,-1.92,0.000000,0.000000,0,1,7.89,0.00
216388,0.00,0.00,-0.09,-0.12,0.06,-0.18,-0.9,0.1,359.0,55.53,-1.85,0.000000,0.000000,0,1,7.89,0.00
217000,0.02,0.00,-0.10,0.06,0.06,0.00,-0.9,0.1,359.0,55.54,-1.82,0.000000,0.000000,0,1,7.89,0.00
217306,0.01,-0.00,-0.10,-0.12,-0.12,0.12,-0.9,0.1,359.0,55.55,-1.85,0.000000,0.000000,0,1,7.89,0.00
217612,0.00,0.00,-0.07,-0.06,0.12,0.06,-0.9,0.1,359.0,55.56,-1.82,0.000000,0.000000,0,1,7.89,0.00
217918,0.01,0.01,-0.10,0.06,-0.06,-0.31,-0.9,0.1,359.0,55.57,-1.85,0.000000,0.000000,0,1,7.89,0.00
218530,0.00,0.00,-0.09,0.00,-0.18,0.18,-0.9,0.1,359.0,55.58,-1.93,0.000000,0.000000,0,1,7.89,0.00
218836,0.00,-0.00,-0.09,-0.06,0.18,0.00,-0.9,0.1,359.0,55.59,-1.93,0.000000,0.000000,0,1,7.89,0.00
219142,0.00,-0.01,-0.09,-0.12,0.06,-0.06,-0.9,0.1,359.0,55.60,-1.96,0.000000,0.000000,0,1,7.89,0.00
219448,0.02,-0.00,-0.10,-0.06,0.00,-0.25,-0.9,0.1,359.0,55.60,-1.98,0.000000,0.000000,0,1,7.89,0.00
220060,0.02,0.00,-0.09,-0.06,-0.25,-0.12,-0.9,0.1,359.0,55.62,-1.97,0.000000,0.000000,0,1,7.89,0.00
220366,0.00,0.00,-0.12,0.00,0.06,0.00,-0.9,0.1,359.0,55.62,-1.94,0.000000,0.000000,0,1,7.89,0.00
220978,0.00,0.00,-0.11,-0.18,0.00,0.12,-0.9,0.1,359.0,55.64,-1.81,0.000000,0.000000,0,1,7.88,0.00
221284,0.01,-0.00,-0.09,0.12,-0.18,-0.06,-0.9,0.1,359.0,55.64,-1.80,0.000000,0.000000,0,1,7.88,0.00
221896,0.28,0.15,-0.09,1.37,0.00,0.31,-0.8,0.1,359.0,55.66,-1.90,0.000000,0.000000,0,1,7.89,0.00
222202,-0.01,0.05,-0.05,0.18,0.18,0.12,-0.9,0.1,359.0,55.67,-1.88,0.000000,0.000000,0,1,7.89,0.00
222508,0.31,0.37,-0.01,1.75,-0.62,-0.06,-0.9,0.1,359.0,55.67,-1.88,0.000000,0.000000,0,1,7.89,0.00
223120,0.01,-0.05,-0.11,-0.25,0.12,-0.12,-0.9,0.1,359.0,55.68,-1.81,0.000000,0.000000,0,1,7.89,0.00
223732,0.07,0.18,-0.05,1.31,-1.06,0.06,-0.9,0.2,359.0,55.70,-1.78,0.000000,0.000000,0,1,7.89,0.00
224038,0.01,0.07,-0.07,-0.62,0.06,0.06,-0.9,0.2,359.0,55.70,-1.76,0.000000,0.000000,0,1,7.89,0.00
224344,0.11,-0.10,-0.18,-1.50,-0.25,-0.06,-0.9,0.3,359.0,55.71,-1.80,0.000000,0.000000,0,1,7.89,0.00
224650,0.05,-0.05,0.00,-1.43,1.75,-0.18,-0.9,0.2,359.0,55.72,-1.82,0.000000,0.000000,0,1,7.89,0.00
224956,0.18,0.07,0.00,0.93,-0.75,0.12,-1.0,0.3,359.0,55.72,-1.80,0.000000,0.000000,0,1,7.89,0.00
225568,0.18,0.02,-0.13,0.25,0.31,0.06,-0.9,0.3,359.0,55.74,-1.80,0.000000,0.000000,0,1,7.89,0.00
225874,0.07,0.05,-0.09,-0.12,-0.06,0.06,-1.0,0.3,359.0,55.74,-1.82,0.000000,0.000000,0,1,7.89,0.00
226180,0.07,-0.15,-0.15,-2.62,0.31,-0.06,-1.0,0.3,359.0,55.75,-1.84,0.000000,0.000000,0,1,7.89,0.00
226486,0.00,0.00,-0.11,1.93,-0.93,0.06,-1.0,0.3,359.0,55.76,-1.83,0.000000,0.000000,0,1,7.89,0.00
227098,0.00,0.00,-0.18,-0.37,-0.43,0.18,-0.9,0.2,359.0,55.77,-1.88,0.000000,0.000000,0,1,7.88,0.00
227404,-0.00,0.00,-0.07,-0.25,0.00,0.12,-1.0,0.2,359.0,55.78,-1.89,0.000000,0.000000,0,1,7.88,0.00
227710,0.00,0.03,-0.07,0.25,0.06,0.00,-1.0,0.2,359.0,55.79,-1.90,0.000000,0.000000,0,1,7.88,0.00
228016,-0.15,-0.05,-0.13,-0.75,0.06,0.31,-1.2,-0.3,359.0,55.79,-1.92,0.000000,0.000000,0,1,7.88,0.00
228628,0.05,-0.09,-0.07,2.00,0.37,0.12,-1.0,0.1,359.0,55.81,-1.95,0.000000,0.000000,0,1,7.88,0.00
228934,0.01,0.02,-0.20,-0.62,1.12,0.12,-0.8,0.1,359.0,55.82,-1.95,0.000000,0.000000,0,1,7.88,0.00
229240,-0.05,0.07,0.00,0.50,0.50,0.18,-0.9,0.3,359.0,55.82,-1.95,0.000000,0.000000,0,1,7.88,0.00
229546,-0.09,-0.05,-0.11,0.31,0.93,0.18,-0.9,0.2,359.0,55.83,-1.95,0.000000,0.000000,0,1,7.88,0.00
229852,0.13,-0.00,-0.18,0.43,-2.43,-0.18,-0.9,0.2,359.0,55.84,-1.98,0.000000,0.000000,0,1,7.88,0.00
230464,-0.01,0.31,0.01,1.00,0.25,0.12,-1.0,0.2,357.6,55.85,-1.98,0.000000,0.000000,0,1,7.89,0.00
230770,-0.09,0.13,0.02,2.62,-1.31,0.50,-1.0,0.2,357.4,55.86,-1.90,0.000000,0.000000,0,1,7.89,0.00
231076,-0.03,-0.09,0.02,1.62,-0.37,-19.25,-1.1,0.2,357.2,55.87,-1.85,0.000000,0.000000,0,1,7.89,0.00
231382,0.46,0.27,-0.20,-4.37,3.18,-0.18,-1.8,0.2,359.3,55.87,-1.82,0.000000,0.000000,0,1,7.89,0.00
231688,0.11,-0.34,-0.27,1.31,-0.81,-0.06,-1.8,0.2,359.3,55.88,-1.82,0.000000,0.000000,0,1,7.89,0.00
232300,-0.27,-0.07,-0.11,8.18,-3.68,-11.75,-1.9,0.3,358.6,55.89,-1.86,0.000000,0.000000,0,1,7.89,0.00
232606,0.20,0.27,0.01,1.37,-2.62,0.87,-0.6,0.1,359.3,55.90,-1.88,0.000000,0.000000,0,1,7.89,0.00
232912,-0.07,0.02,-0.13,2.00,7.06,3.06,-1.8,0.3,359.9,55.91,-1.81,0.000000,0.000000,0,1,7.89,0.00
233524,-0.30,0.03,0.15,-4.31,3.06,19.75,-2.0,0.4,359.3,55.91,-1.68,0.000000,0.000000,0,1,7.91,0.00
233830,0.43,0.09,0.11,7.06,0.25,-5.56,-2.6,0.1,357.7,55.92,-1.70,0.000000,0.000000,0,1,7.91,0.00
234136,-0.22,-0.61,-0.37,1.50,-0.68,-2.37,-2.7,0.0,356.0,55.92,-1.75,0.000000,0.000000,0,1,7.88,0.00
234442,0.54,-0.05,-0.05,1.75,-1.81,0.37,-2.6,0.0,355.9,55.94,-1.82,0.000000,0.000000,0,1,7.88,0.00
234748,0.34,0.34,-0.12,-0.81,-5.31,0.12,-1.7,0.1,356.2,55.94,-1.95,0.000000,0.000000,0,1,7.88,0.00
235054,-0.20,0.30,-0.27,2.50,-0.68,-6.00,-2.8,0.0,356.6,55.95,-1.99,0.000000,0.000000,0,1,7.89,0.00
235666,0.91,-0.10,0.05,5.12,-0.56,-9.37,-2.5,-1.0,6.1,55.97,-2.03,0.000000,0.000000,0,1,7.89,0.00
235972,0.02,0.05,-0.07,0.37,0.31,0.06,-2.6,-1.0,6.9,55.97,-1.94,0.000000,0.000000,0,1,7.89,0.00
236278,0.05,0.00,-0.18,-0.62,0.43,-0.31,-2.6,-1.0,8.8,55.98,-1.82,0.000000,0.000000,0,1,7.89,0.00
236584,0.02,0.03,-0.05,-0.06,0.50,0.00,-2.6,-1.0,8.8,55.98,-1.61,0.000000,0.000000,0,1,7.89,0.00
236890,0.13,0.15,-0.01,-0.43,0.50,-0.12,-2.6,-0.8,8.8,55.98,-1.54,0.000000,0.000000,0,1,7.89,0.00
237196,-0.91,-0.83,-0.28,-4.31,5.56,-0.62,-2.7,-0.8,7.8,55.98,-1.53,0.000000,0.000000,0,1,7.88,0.00
237502,-0.11,0.07,-0.12,-3.00,-1.75,9.31,-3.5,-1.1,7.9,55.99,-1.52,0.000000,0.000000,0,1,7.88,0.00
237808,-0.58,0.43,-0.22,9.68,6.06,-8.06,-3.0,-0.9,5.5,55.99,-1.53,0.000000,0.000000,0,1,7.88,0.00
238420,-0.51,0.27,-0.20,0.87,4.75,1.68,-2.6,-1.0,4.0,56.00,-1.55,0.000000,0.000000,0,1,7.88,0.00
238726,-0.13,-0.25,0.01,0.62,-1.18,1.37,-2.6,-1.0,4.2,56.01,-1.58,0.000000,0.000000,0,1,7.88,0.00
239032,0.34,0.07,-0.09,1.87,-3.18,-1.50,-2.0,-1.1,4.6,56.01,-1.57,0.000000,0.000000,0,1,7.89,0.00
239338,0.61,0.27,0.20,-1.81,-2.12,5.50,-2.2,-1.2,4.0,56.02,-1.60,0.000000,0.000000,0,1,7.89,0.00
239644,0.28,-0.07,-0.15,2.31,0.12,-2.50,-2.6,-1.2,3.8,56.03,-1.69,0.000000,0.000000,0,1,7.89,0.00
239950,0.33,0.19,0.02,1.50,6.12,13.81,-2.9,-1.3,3.5,56.03,-1.66,0.000000,0.000000,0,1,7.89,0.00
240562,-0.02,0.13,-0.00,3.68,-3.06,2.00,-2.7,-1.4,2.8,56.04,-1.66,0.000000,0.000000,0,1,7.89,0.00
240868,0.37,0.11,0.17,-0.62,-1.43,7.31,-2.8,-1.0,2.3,56.05,-1.75,0.000000,0.000000,0,1,7.89,0.00
241174,0.25,0.43,-0.17,4.25,-1.37,14.93,-2.4,-1.1,359.9,56.06,-1.79,0.000000,0.000000,0,1,7.89,0.00
241480,-0.02,-0.09,-0.00,0.18,0.50,0.12,-2.5,-1.1,358.8,56.07,-1.84,0.000000,0.000000,0,1,7.89,0.00
241786,0.18,-0.05,-0.05,-0.12,-2.75,0.12,-2.6,-1.0,357.7,56.07,-1.89,0.000000,0.000000,0,1,7.89,0.00
242398,0.09,-0.15,-0.05,-0.43,1.56,0.37,-2.4,-1.1,357.8,56.08,-1.79,0.000000,0.000000,0,1,7.89,0.00
242704,-0.27,-0.15,-0.07,0.50,1.81,-1.37,-2.6,-1.3,358.1,56.09,-1.79,0.000000,0.000000,0,1,7.89,0.00
243316,0.12,0.05,0.51,1.37,-0.37,-0.06,-2.6,-1.1,358.2,56.10,-1.83,0.000000,0.000000,0,1,7.88,0.00
243622,0.11,0.19,-0.00,-0.75,6.18,24.68,-2.3,-1.0,358.9,56.11,-1.80,0.000000,0.000000,0,1,7.88,0.00
243928,-0.60,0.50,-1.05,1.68,-9.00,-35.00,-2.6,-1.1,358.8,56.11,-1.74,0.000000,0.000000,0,1,7.88,0.00
244234,-0.30,0.18,-0.20,-3.18,0.50,-0.81,-2.5,-0.8,358.3,56.12,-1.76,0.000000,0.000000,0,1,7.88,0.00
244846,0.05,0.22,0.00,1.25,-1.62,0.25,-2.6,-0.4,356.6,56.13,-1.67,0.000000,0.000000,0,1,7.88,0.00
245152,0.43,0.00,0.05,5.31,-3.56,0.50,-2.5,-0.5,356.6,56.14,-1.69,0.000000,0.000000,0,1,7.89,0.00
245764,0.73,-1.11,-2.11,-2.68,3.75,10.87,-2.8,-1.2,355.6,56.15,-1.75,0.000000,0.000000,0,1,7.89,0.00
246376,-0.22,-0.73,-0.46,-2.12,0.93,0.06,-2.6,-0.6,355.7,56.16,-1.69,0.000000,0.000000,0,1,7.89,0.00
246682,0.09,-0.12,-0.11,2.56,-6.31,0.31,-2.5,-0.7,356.1,56.16,-1.73,0.000000,0.000000,0,1,7.89,0.00
247294,-0.00,0.05,-0.13,0.06,0.18,0.18,-2.6,-0.7,356.0,56.18,-1.80,0.000000,0.000000,0,1,7.89,0.00
247600,0.00,0.01,-0.07,-0.18,0.37,0.18,-2.6,-0.7,356.0,56.18,-1.80,0.000000,0.000000,0,1,7.89,0.00
247906,0.07,0.03,-0.07,-0.06,0.06,-0.12,-2.5,-0.8,356.0,56.19,-1.78,0.000000,0.000000,0,1,7.89,0.00
248212,0.05,0.02,-0.11,0.00,0.06,0.12,-2.5,-0.8,356.0,56.19,-1.80,0.000000,0.000000,0,1,7.89,0.00
248824,0.00,0.03,-0.11,0.06,0.12,-0.06,-2.5,-0.7,352.5,56.21,-1.83,0.000000,0.000000,0,1,7.89,0.00
249130,0.15,0.07,-0.01,-1.43,-2.06,-0.25,-2.2,-0.8,353.8,56.21,-1.89,0.000000,0.000000,0,1,7.89,0.00
249436,0.55,0.11,-0.10,2.62,0.56,-2.50,-2.3,-0.8,355.5,56.22,-1.90,0.000000,0.000000,0,1,7.89,0.00
250048,0.00,0.30,0.11,2.25,1.56,8.56,-2.4,-1.0,354.4,56.23,-1.70,0.000000,0.000000,0,1,7.89,0.00
250354,0.20,0.27,-0.19,-0.25,-7.31,0.00,-2.3,-0.9,357.9,56.24,-1.69,0.000000,0.000000,0,1,7.88,0.00
250966,-0.56,0.20,-0.13,4.50,-3.81,1.75,-2.4,-1.2,0.8,56.25,-1.62,0.000000,0.000000,0,1,7.88,0.00
251272,-0.20,0.03,-0.50,2.87,4.93,0.56,-2.6,-1.0,1.1,56.25,-1.71,0.000000,0.000000,0,1,7.89,0.00
251578,0.05,-0.02,-0.11,-1.25,0.06,4.18,-2.4,-0.8,0.9,56.26,-1.72,0.000000,0.000000,0,1,7.89,0.00
251884,-0.07,0.00,-0.25,-2.56,2.00,-1.81,-2.5,-1.0,359.8,56.26,-1.62,0.000000,0.000000,0,1,7.89,0.00
252190,0.00,0.05,-0.01,0.25,-0.25,0.12,-2.3,-0.9,359.9,56.27,-1.70,0.000000,0.000000,0,1,7.89,0.00
252802,0.10,0.28,0.00,2.56,-1.87,14.18,-2.3,-1.0,359.6,56.28,-1.69,0.000000,0.000000,0,1,7.89,0.00
253414,-0.19,-0.03,-0.17,-1.18,-0.50,-0.18,-2.4,-1.0,356.3,56.28,-1.66,0.000000,0.000000,0,1,7.88,0.00
253720,0.37,0.20,0.05,2.25,-1.81,1.81,-2.3,-1.2,356.1,56.29,-1.77,0.000000,0.000000,0,1,7.88,0.00
254332,-0.07,0.19,0.05,3.68,4.06,4.75,-2.5,-1.1,355.7,56.31,-2.03,0.000000,0.000000,0,1,7.88,0.00
254638,-0.05,0.25,-0.03,2.31,-1.06,0.50,-2.3,-1.1,355.6,56.32,-2.01,0.000000,0.000000,0,1,7.88,0.00
254944,0.11,0.18,-0.00,5.06,-0.25,1.62,-2.3,-1.1,355.6,56.32,-1.83,0.000000,0.000000,0,1,7.88,0.00
255556,0.03,0.03,-0.10,2.75,0.06,0.31,-2.2,-1.0,355.6,56.32,-1.62,0.000000,0.000000,0,1,7.89,0.00
256168,-0.00,-0.11,-0.25,-0.75,-0.31,-0.12,-2.1,-1.0,355.6,56.34,-1.69,0.000000,0.000000,0,1,7.89,0.00
256474,0.00,-0.01,-0.11,-1.18,-0.62,-0.12,-2.2,-1.0,355.6,56.34,-1.73,0.000000,0.000000,0,1,7.88,0.00
257086,0.43,0.34,0.07,-0.75,3.25,-9.81,-2.4,-0.9,359.3,56.35,-1.69,0.000000,0.000000,0,1,7.88,0.00
257392,0.03,-0.12,-0.13,0.56,-1.43,-16.50,-2.5,-1.1,7.3,56.36,-1.72,0.000000,0.000000,0,1,7.88,0.00
257698,0.02,0.35,0.02,-2.25,0.31,-20.18,-2.5,-1.3,8.6,56.36,-1.68,0.000000,0.000000,0,1,7.88,0.00
258004,-0.11,-0.02,0.00,-0.31,0.06,-0.25,-2.2,-1.2,10.3,56.37,-1.59,0.000000,0.000000,0,1,7.88,0.00
258310,-0.05,-0.07,-0.03,-1.62,0.31,-1.06,-2.4,-1.4,10.5,56.37,-1.54,0.000000,0.000000,0,1,7.89,0.00
258616,0.07,-0.23,0.00,2.62,-1.81,-12.25,-2.5,-1.5,14.0,56.37,-1.63,0.000000,0.000000,0,1,7.89,0.00
258922,-0.03,0.05,-0.18,-0.31,0.06,0.12,-2.4,-1.5,14.0,56.38,-1.62,0.000000,0.000000,0,1,7.89,0.00
259534,-0.03,-0.07,-0.18,0.31,-0.06,0.00,-2.4,-1.5,14.0,56.38,-1.50,0.000000,0.000000,0,1,7.88,0.00
260146,-0.40,-0.27,0.01,1.87,-1.56,-0.75,-2.5,-1.8,24.9,56.39,-1.70,0.000000,0.000000,0,1,7.88,0.00
260452,-0.05,0.00,-0.07,-1.43,0.37,4.00,-2.6,-1.6,25.8,56.40,-1.80,0.000000,0.000000,0,1,7.88,0.00
260758,0.07,-0.20,-0.10,0.06,-1.81,0.12,-2.7,-1.6,25.0,56.41,-1.82,0.000000,0.000000,0,1,7.88,0.00
261064,-0.20,0.17,0.00,0.81,-1.50,0.43,-2.6,-1.6,25.0,56.41,-1.80,0.000000,0.000000,0,1,7.88,0.00
261370,0.22,-0.07,-0.17,1.18,0.43,0.12,-2.6,-1.6,24.5,56.42,-1.75,0.000000,0.000000,0,1,7.88,0.00
261676,-0.05,0.66,-0.23,-2.87,3.12,64.93,-3.0,-2.1,23.6,56.42,-1.81,0.000000,0.000000,0,1,7.88,0.00
261982,0.40,-0.27,-0.11,0.18,-7.12,-12.37,-2.8,-1.7,17.9,56.43,-1.89,0.000000,0.000000,0,1,7.88,0.00
262288,0.00,-0.15,-0.25,-0.43,1.56,0.68,-2.7,-1.8,17.8,56.44,-1.88,0.000000,0.000000,0,1,7.88,0.00
263206,-0.01,0.11,-0.07,1.00,0.25,0.18,-2.4,-1.5,19.5,56.46,-1.78,0.000000,0.000000,0,1,7.88,0.00
263512,0.00,0.00,-0.05,-0.06,-0.06,0.06,-2.4,-1.5,19.5,56.46,-1.72,0.000000,0.000000,0,1,7.88,0.00
263818,0.09,-0.05,0.05,0.12,0.12,0.12,-2.4,-1.5,19.5,56.47,-1.78,0.000000,0.000000,0,1,7.88,0.00
264124,0.00,0.00,-0.07,0.00,0.00,0.00,-2.4,-1.5,19.5,56.47,-1.79,0.000000,0.000000,0,1,7.88,0.00
264430,0.00,0.00,-0.10,-0.06,0.00,0.06,-2.4,-1.5,19.5,56.48,-1.77,0.000000,0.000000,0,1,7.88,0.00
264736,0.00,0.00,-0.10,0.12,-0.12,0.00,-2.4,-1.5,19.5,56.48,-1.74,0.000000,0.000000,0,1,7.88,0.00
265348,0.07,0.05,-0.22,0.06,0.06,0.12,-2.4,-1.5,19.5,56.49,-1.77,0.000000,0.000000,0,1,7.88,0.00
265654,0.01,0.00,-0.05,0.00,-0.18,-0.06,-2.4,-1.5,19.5,56.50,-1.78,0.000000,0.000000,0,1,7.88,0.00
265960,0.01,0.00,-0.07,0.00,0.18,-0.25,-2.4,-1.5,19.5,56.51,-1.80,0.000000,0.000000,0,1,7.88,0.00
266266,0.11,-0.10,-0.07,-0.25,0.06,0.25,-2.4,-1.5,19.5,56.51,-1.87,0.000000,0.000000,0,1,7.88,0.00
266572,-0.07,-0.01,-0.00,0.06,0.68,-0.06,-2.4,-1.5,19.5,56.52,-1.92,0.000000,0.000000,0,1,7.88,0.00
267184,0.30,0.00,-0.07,-1.37,0.81,-0.06,-2.3,-1.6,19.5,56.53,-1.88,0.000000,0.000000,0,1,7.88,0.00
267490,-0.00,-0.01,-0.09,-0.12,0.25,0.06,-2.3,-1.6,19.5,56.54,-1.83,0.000000,0.000000,0,1,7.88,0.00
267796,0.00,0.00,-0.13,0.18,0.12,0.06,-2.3,-1.6,19.5,56.54,-1.78,0.000000,0.000000,0,1,7.88,0.00
268102,0.00,0.00,-0.07,0.00,-0.06,0.18,-2.3,-1.6,19.5,56.54,-1.72,0.000000,0.000000,0,1,7.88,0.00
268408,0.00,0.00,-0.07,0.00,-0.12,-0.12,-2.3,-1.6,19.5,56.55,-1.67,0.000000,0.000000,0,1,7.88,0.00
269020,0.00,0.00,-0.05,-0.12,-0.31,0.12,-2.3,-1.6,19.5,56.55,-1.58,0.000000,0.000000,0,1,7.88,0.00
269326,0.00,0.00,-0.07,0.00,-0.06,0.25,-2.3,-1.6,19.5,56.55,-1.48,0.000000,0.000000,0,1,7.88,0.00
269632,-0.00,0.00,-0.07,0.06,-0.06,-0.06,-2.3,-1.6,19.5,56.56,-1.41,0.000000,0.000000,0,1,7.88,0.00
270244,0.07,0.01,-0.11,0.12,0.00,0.00,-2.3,-1.6,19.5,56.56,-1.33,0.000000,0.000000,0,1,7.88,0.00
270550,0.01,0.00,-0.10,0.06,-0.18,-0.06,-2.3,-1.6,19.5,56.56,-1.38,0.000000,0.000000,0,1,7.88,0.00
270856,0.00,-0.01,-0.07,0.06,0.06,0.25,-2.3,-1.6,19.5,56.57,-1.45,0.000000,0.000000,0,1,7.88,0.00
271162,0.00,0.00,-0.07,0.00,0.06,-0.06,-2.3,-1.6,19.5,56.57,-1.51,0.000000,0.000000,0,1,7.88,0.00
271468,0.01,0.00,-0.05,0.06,-0.43,0.18,-2.3,-1.6,19.5,56.58,-1.60,0.000000,0.000000,0,1,7.88,0.00
272080,-0.00,-0.02,-0.05,-0.12,0.00,-0.31,-2.3,-1.6,19.5,56.59,-1.69,0.000000,0.000000,0,1,7.88,0.00
272386,0.00,0.00,-0.05,-0.18,0.00,0.00,-2.3,-1.6,19.5,56.59,-1.72,0.000000,0.000000,0,1,7.88,0.00
272692,0.01,0.00,-0.05,0.12,0.06,-0.12,-2.3,-1.6,19.5,56.60,-1.71,0.000000,0.000000,0,1,7.88,0.00
273304,0.00,-0.00,-0.07,-0.18,-0.12,-0.12,-2.3,-1.6,19.5,56.61,-1.74,0.000000,0.000000,0,1,7.88,0.00
273916,0.00,0.00,-0.09,0.06,0.00,-0.06,-2.3,-1.6,19.5,56.62,-1.67,0.000000,0.000000,0,1,7.88,0.00
274222,0.00,0.00,-0.07,0.00,-0.18,-0.06,-2.3,-1.6,19.5,56.62,-1.66,0.000000,0.000000,0,1,7.88,0.00
274528,0.00,0.00,-0.07,0.06,0.06,0.06,-2.3,-1.6,19.5,56.63,-1.68,0.000000,0.000000,0,1,7.88,0.00
274834,0.00,0.00,-0.07,0.18,0.12,0.06,-2.3,-1.6,19.5,56.63,-1.68,0.000000,0.000000,0,1,7.88,0.00
275446,-0.00,0.00,-0.07,0.00,0.12,-0.12,-2.3,-1.6,19.5,56.64,-1.62,0.000000,0.000000,0,1,7.88,0.00
275752,-0.00,0.00,-0.07,-0.06,-0.06,0.18,-2.3,-1.6,19.5,56.64,-1.58,0.000000,0.000000,0,1,7.88,0.00
276058,0.00,0.00,-0.10,0.06,0.06,0.00,-2.3,-1.6,19.5,56.64,-1.56,0.000000,0.000000,0,1,7.88,0.00
276364,0.00,0.02,-0.10,0.12,0.00,0.06,-2.3,-1.6,19.5,56.64,-1.53,0.000000,0.000000,0,1,7.88,0.00
276976,0.00,0.00,-0.05,-0.12,-0.18,-0.18,-2.3,-1.6,19.5,56.65,-1.46,0.000000,0.000000,0,1,7.88,0.00
277282,0.00,-0.00,-0.07,-0.12,0.00,0.12,-2.3,-1.6,19.5,56.65,-1.44,0.000000,0.000000,0,1,7.88,0.00
277894,0.00,0.00,-0.09,0.00,0.00,-0.06,-2.3,-1.6,19.5,56.66,-1.43,0.000000,0.000000,0,1,7.88,0.00
278200,0.00,0.00,-0.07,0.00,-0.18,-0.06,-2.3,-1.6,19.5,56.66,-1.43,0.000000,0.000000,0,1,7.88,0.00
278506,0.00,0.00,-0.11,0.06,-0.12,-0.18,-2.3,-1.6,19.5,56.67,-1.46,0.000000,0.000000,0,1,7.88,0.00
278812,-0.00,0.00,-0.10,-0.06,0.06,0.00,-2.3,-1.6,19.5,56.67,-1.45,0.000000,0.000000,0,1,7.88,0.00
279424,0.00,0.00,-0.05,0.06,-0.06,0.12,-2.3,-1.6,19.5,56.67,-1.32,0.000000,0.000000,0,1,7.88,0.00
279730,0.01,0.00,-0.05,0.06,-0.06,-0.06,-2.3,-1.6,19.5,56.67,-1.26,0.000000,0.000000,0,1,7.88,0.00
280036,0.00,0.00,-0.07,0.06,-0.06,-0.06,-2.3,-1.6,19.5,56.68,-1.23,0.000000,0.000000,0,1,7.88,0.00
280648,0.00,-0.01,-0.07,0.12,0.06,0.00,-2.3,-1.6,19.5,56.68,-1.17,0.000000,0.000000,0,1,7.88,0.00
280954,0.00,-0.00,-0.07,-0.12,-0.06,-0.06,-2.3,-1.6,19.5,56.68,-1.20,0.000000,0.000000,0,1,7.88,0.00
281260,0.00,0.00,-0.11,0.00,0.06,0.12,-2.3,-1.6,19.5,56.68,-1.28,0.000000,0.000000,0,1,7.88,0.00
281566,0.00,0.00,-0.11,0.12,-0.06,0.06,-2.3,-1.6,19.5,56.68,-1.36,0.000000,0.000000,0,1,7.88,0.00
281872,-0.00,-0.01,-0.09,0.06,-0.12,0.12,-2.3,-1.6,19.5,56.69,-1.40,0.000000,0.000000,0,1,7.88,0.00
282484,0.00,-0.00,-0.07,0.12,0.00,0.00,-2.3,-1.6,19.5,56.69,-1.45,0.000000,0.000000,0,1,7.87,0.00
282790,0.00,-0.00,-0.07,0.00,0.06,0.18,-2.3,-1.6,19.5,56.70,-1.47,0.000000,0.000000,0,1,7.87,0.00
283096,0.00,0.00,-0.07,0.00,0.06,0.00,-2.3,-1.6,19.5,56.70,-1.49,0.000000,0.000000,0,1,7.87,0.00
283402,0.00,0.00,-0.07,0.00,0.06,0.18,-2.3,-1.6,19.5,56.70,-1.52,0.000000,0.000000,0,1,7.87,0.00
284014,0.00,0.00,-0.12,0.06,-0.12,0.06,-2.3,-1.6,19.5,56.71,-1.52,0.000000,0.000000,0,1,7.87,0.00
284320,0.00,0.00,-0.11,0.12,0.18,0.12,-2.3,-1.6,19.5,56.72,-1.55,0.000000,0.000000,0,1,7.87,0.00
284932,0.00,0.00,-0.10,-0.18,-0.06,-0.06,-2.3,-1.6,19.5,56.73,-1.69,0.000000,0.000000,0,1,7.88,0.00
285238,0.00,-0.00,-0.03,-0.06,0.12,0.00,-2.3,-1.6,19.5,56.73,-1.74,0.000000,0.000000,0,1,7.88,0.00
285544,0.00,-0.00,-0.05,0.00,-0.18,0.06,-2.3,-1.6,19.5,56.74,-1.76,0.000000,0.000000,0,1,7.88,0.00
285850,0.00,0.00,-0.07,0.12,-0.12,0.06,-2.3,-1.6,19.5,56.74,-1.67,0.000000,0.000000,0,1,7.88,0.00
286462,0.00,0.00,-0.07,0.00,0.12,-0.18,-2.3,-1.6,19.5,56.75,-1.64,0.000000,0.000000,0,1,7.88,0.00
286768,0.00,0.00,-0.07,-0.06,0.06,0.25,-2.3,-1.6,19.5,56.76,-1.60,0.000000,0.000000,0,1,7.88,0.00
287074,0.00,0.00,-0.10,0.06,-0.12,0.06,-2.3,-1.6,19.5,56.76,-1.56,0.000000,0.000000,0,1,7.88,0.00
287686,0.00,0.00,-0.03,-0.12,0.00,-0.18,-2.3,-1.6,19.5,56.76,-1.44,0.000000,0.000000,0,1,7.88,0.00
287992,0.00,-0.00,-0.05,0.18,-0.06,-0.06,-2.3,-1.6,19.5,56.76,-1.37,0.000000,0.000000,0,1,7.88,0.00
288298,-0.00,0.00,-0.07,0.00,-0.18,-0.18,-2.3,-1.6,19.5,56.76,-1.35,0.000000,0.000000,0,1,7.88,0.00
288604,0.00,0.00,-0.07,0.00,0.18,0.00,-2.3,-1.6,19.5,56.77,-1.41,0.000000,0.000000,0,1,7.88,0.00
289216,0.00,0.00,-0.10,0.00,-0.12,0.00,-2.3,-1.6,19.5,56.77,-1.39,0.000000,0.000000,0,1,7.88,0.00
289522,0.00,-0.02,-0.10,0.06,-0.12,0.06,-2.3,-1.6,19.5,56.78,-1.39,0.000000,0.000000,0,1,7.87,0.00
289828,0.00,0.00,-0.09,-0.12,0.06,-0.18,-2.3,-1.6,19.5,56.78,-1.41,0.000000,0.000000,0,1,7.87,0.00
290134,-0.00,0.00,-0.07,0.00,-0.06,0.18,-2.3,-1.6,19.5,56.78,-1.48,0.000000,0.000000,0,1,7.87,0.00
290440,0.00,0.00,-0.07,-0.06,-0.12,-0.12,-2.3,-1.6,19.5,56.79,-1.51,0.000000,0.000000,0,1,7.87,0.00
290746,0.00,0.00,-0.05,0.00,0.12,0.12,-2.3,-1.6,19.5,56.79,-1.48,0.000000,0.000000,0,1,7.87,0.00
291052,0.02,0.00,-0.07,0.06,0.00,-0.06,-2.3,-1.6,19.5,56.79,-1.53,0.000000,0.000000,0,1,7.87,0.00
291358,0.00,0.00,-0.07,0.06,-0.06,0.06,-2.3,-1.6,19.5,56.80,-1.57,0.000000,0.000000,0,1,7.87,0.00
291970,-0.00,0.00,-0.05,0.00,0.00,0.06,-2.3,-1.6,19.5,56.81,-1.52,0.000000,0.000000,0,1,7.87,0.00
292276,0.00,-0.01,-0.07,0.00,-0.06,-0.06,-2.3,-1.6,19.5,56.81,-1.52,0.000000,0.000000,0,1,7.87,0.00
292888,0.00,-0.00,-0.11,0.06,-0.25,-0.06,-2.3,-1.6,19.5,56.81,-1.46,0.000000,0.000000,0,1,7.87,0.00
293194,-0.00,0.00,-0.05,-0.18,0.06,-0.06,-2.3,-1.6,19.5,56.81,-1.46,0.000000,0.000000,0,1,7.87,0.00
293500,0.00,0.00,-0.07,-0.06,-0.06,0.06,-2.3,-1.6,19.5,56.82,-1.44,0.000000,0.000000,0,1,7.87,0.00
293806,0.00,0.00,-0.05,0.06,0.25,0.25,-2.3,-1.6,19.5,56.82,-1.42,0.000000,0.000000,0,1,7.87,0.00
294112,0.02,0.00,-0.10,0.00,-0.06,0.06,-2.3,-1.6,19.5,56.82,-1.37,0.000000,0.000000,0,1,7.87,0.00
294418,0.00,0.00,-0.07,0.00,0.06,0.06,-2.3,-1.6,19.5,56.82,-1.34,0.000000,0.000000,0,1,7.87,0.00
295030,-0.00,0.00,-0.07,0.06,-0.12,0.18,-2.3,-1.6,19.5,56.82,-1.22,0.000000,0.000000,0,1,7.87,0.00
295336,0.00,0.00,-0.10,0.06,0.12,0.00,-2.3,-1.6,19.5,56.83,-1.22,0.000000,0.000000,0,1,7.87,0.00
295642,0.00,0.00,-0.07,0.00,-0.06,0.06,-2.3,-1.6,19.5,56.83,-1.25,0.000000,0.000000,0,1,7.88,0.00
295948,0.00,0.00,-0.07,0.00,-0.06,-0.06,-2.3,-1.6,19.5,56.83,-1.34,0.000000,0.000000,0,1,7.88,0.00
296254,0.00,0.00,-0.05,-0.12,0.12,0.00,-2.3,-1.6,19.5,56.83,-1.39,0.000000,0.000000,0,1,7.88,0.00
296560,-0.00,0.00,-0.05,0.18,0.06,-0.12,-2.3,-1.6,19.5,56.84,-1.42,0.000000,0.000000,0,1,7.88,0.00
296866,0.00,-0.00,-0.07,0.06,-0.12,0.12,-2.3,-1.6,19.5,56.84,-1.42,0.000000,0.000000,0,1,7.88,0.00
297172,0.00,0.00,-0.07,0.00,-0.12,-0.12,-2.3,-1.6,19.5,56.85,-1.40,0.000000,0.000000,0,1,7.88,0.00
297478,-0.00,0.00,-0.05,0.00,-0.12,0.00,-2.3,-1.6,19.5,56.85,-1.37,0.000000,0.000000,0,1,7.88,0.00
298090,0.00,-0.00,-0.07,0.06,0.06,-0.12,-2.3,-1.6,19.5,56.85,-1.35,0.000000,0.000000,0,1,7.88,0.00
298396,0.00,0.00,-0.07,0.06,0.12,-0.12,-2.3,-1.6,19.5,56.85,-1.36,0.000000,0.000000,0,1,7.88,0.00
298702,0.00,0.00,-0.09,-0.06,0.00,-0.12,-2.3,-1.6,19.5,56.86,-1.38,0.000000,0.000000,0,1,7.88,0.00
299008,0.01,-0.00,-0.07,0.00,-0.18,0.00,-2.3,-1.6,19.5,56.86,-1.42,0.000000,0.000000,0,1,7.88,0.00
299314,0.00,0.00,-0.07,0.00,-0.06,0.06,-2.3,-1.6,19.5,56.86,-1.43,0.000000,0.000000,0,1,7.88,0.00
299620,0.00,0.00,-0.07,-0.06,0.00,-0.12,-2.3,-1.6,19.5,56.87,-1.40,0.000000,0.000000,0,1,7.87,0.00
299926,0.00,0.00,-0.07,0.12,0.06,0.00,-2.3,-1.6,19.5,56.87,-1.38,0.000000,0.000000,0,1,7.87,0.00
300232,0.00,0.00,-0.09,0.12,-0.12,-0.18,-2.3,-1.6,19.5,56.87,-1.39,0.000000,0.000000,0,1,7.87,0.00
300538,0.00,0.00,-0.07,-0.12,-0.18,-0.06,-2.3,-1.6,19.5,56.88,-1.39,0.000000,0.000000,0,1,7.87,0.00
300844,0.01,0.00,-0.07,0.06,-0.31,-0.12,-2.3,-1.6,19.5,56.88,-1.40,0.000000,0.000000,0,1,7.87,0.00
301150,0.01,0.00,-0.07,0.06,0.00,0.18,-2.3,-1.6,19.5,56.88,-1.39,0.000000,0.000000,0,1,7.87,0.00
301456,0.00,0.00,-0.07,0.06,-0.06,-0.12,-2.3,-1.6,19.5,56.88,-1.40,0.000000,0.000000,0,1,7.87,0.00
301762,0.00,0.00,-0.07,0.06,0.25,0.06,-2.3,-1.6,19.5,56.89,-1.41,0.000000,0.000000,0,1,7.88,0.00
302068,0.00,0.00,-0.09,-0.06,-0.06,0.12,-2.3,-1.6,19.5,56.89,-1.40,0.000000,0.000000,0,1,7.88,0.00
302374,0.00,-0.00,-0.10,0.00,0.12,-0.18,-2.3,-1.6,19.5,56.90,-1.40,0.000000,0.000000,0,1,7.88,0.00
302680,0.00,0.00,-0.10,-0.12,0.12,0.12,-2.3,-1.6,19.5,56.90,-1.41,0.000000,0.000000,0,1,7.88,0.00
302986,0.00,0.00,-0.11,0.00,0.00,0.06,-2.3,-1.6,19.5,56.90,-1.42,0.000000,0.000000,0,1,7.88,0.00
303292,0.00,0.00,-0.07,0.06,-0.06,-0.06,-2.3,-1.6,19.5,56.91,-1.44,0.000000,0.000000,0,1,7.88,0.00
303598,0.00,0.00,-0.07,-0.06,-0.12,0.18,-2.3,-1.6,19.5,56.91,-1.46,0.000000,0.000000,0,1,7.88,0.00
303904,0.00,0.00,-0.07,0.12,0.06,-0.12,-2.3,-1.6,19.5,56.91,-1.46,0.000000,0.000000,0,1,7.87,0.00
304210,0.00,-0.01,-0.07,0.06,0.12,0.06,-2.3,-1.6,19.5,56.92,-1.45,0.000000,0.000000,0,1,7.87,0.00
304516,-0.00,-0.00,-0.07,0.12,-0.06,-0.12,-2.3,-1.6,19.5,56.92,-1.45,0.000000,0.000000,0,1,7.87,0.00
304822,0.00,0.00,-0.07,0.06,0.00,0.18,-2.3,-1.6,19.5,56.92,-1.45,0.000000,0.000000,0,1,7.88,0.00
305434,0.00,0.00,-0.07,0.00,-0.12,0.06,-2.3,-1.6,19.5,56.93,-1.45,0.000000,0.000000,0,1,7.88,0.00
305740,0.00,0.00,-0.09,0.00,0.00,-0.06,-2.3,-1.6,19.5,56.94,-1.45,0.000000,0.000000,0,1,7.87,0.00
306046,-0.00,0.00,-0.11,0.00,0.18,-0.06,-2.3,-1.6,19.5,56.94,-1.46,0.000000,0.000000,0,1,7.87,0.00
306352,0.00,-0.00,-0.09,0.00,0.18,-0.18,-2.3,-1.6,19.5,56.95,-1.45,0.000000,0.000000,0,1,7.87,0.00
306658,0.00,0.00,-0.09,0.06,-0.12,-0.18,-2.3,-1.6,19.5,56.95,-1.43,0.000000,0.000000,0,1,7.87,0.00
306964,-0.00,0.00,-0.07,0.00,-0.12,0.06,-2.3,-1.6,19.5,56.95,-1.42,0.000000,0.000000,0,1,7.88,0.00
307270,0.00,0.00,-0.07,-0.06,0.00,0.00,-2.3,-1.6,19.5,56.95,-1.40,0.000000,0.000000,0,1,7.88,0.00
307576,0.00,0.00,-0.07,0.06,0.00,0.00,-2.3,-1.6,19.5,56.96,-1.39,0.000000,0.000000,0,1,7.88,0.00
307882,0.00,0.00,-0.07,0.18,-0.18,0.00,-2.3,-1.6,19.5,56.96,-1.41,0.000000,0.000000,0,1,7.87,0.00
308188,0.00,0.00,-0.07,0.06,-0.18,0.31,-2.3,-1.6,19.5,56.96,-1.44,0.000000,0.000000,0,1,7.87,0.00
308494,0.00,0.00,-0.07,0.06,0.06,0.12,-2.3,-1.6,19.5,56.97,-1.40,0.000000,0.000000,0,1,7.87,0.00
308800,-0.00,-0.00,-0.10,0.00,0.00,0.12,-2.3,-1.6,19.5,56.97,-1.41,0.000000,0.000000,0,1,7.87,0.00
309106,-0.00,0.00,-0.09,0.06,-0.12,0.06,-2.3,-1.6,19.5,56.97,-1.42,0.000000,0.000000,0,1,7.87,0.00
309412,0.00,0.00,-0.07,0.18,0.00,0.18,-2.3,-1.6,19.5,56.98,-1.45,0.000000,0.000000,0,1,7.87,0.00
309718,0.00,0.00,-0.07,-0.12,0.00,-0.12,-2.3,-1.6,19.5,56.98,-1.47,0.000000,0.000000,0,1,7.88,0.00
310330,0.00,0.00,-0.07,0.06,0.18,0.06,-2.3,-1.6,19.5,56.99,-1.45,0.000000,0.000000,0,1,7.88,0.00
310636,0.00,0.00,-0.07,0.06,-0.06,-0.25,-2.3,-1.6,19.5,57.00,-1.44,0.000000,0.000000,0,1,7.88,0.00
310942,-0.00,-0.00,-0.07,0.12,-0.18,-0.12,-2.3,-1.6,19.5,57.00,-1.45,0.000000,0.000000,0,1,7.87,0.00
311248,0.00,0.00,-0.07,0.00,-0.12,0.31,-2.3,-1.6,19.5,57.00,-1.43,0.000000,0.000000,0,1,7.87,0.00
311554,-0.00,-0.01,-0.09,0.06,-0.06,-0.12,-2.3,-1.6,19.5,57.01,-1.43,0.000000,0.000000,0,1,7.87,0.00
311860,0.00,0.00,-0.07,0.00,-0.25,0.06,-2.3,-1.6,19.5,57.01,-1.43,0.000000,0.000000,0,1,7.87,0.00
312166,0.00,0.00,-0.05,-0.06,0.06,-0.25,-2.3,-1.6,19.5,57.01,-1.43,0.000000,0.000000,0,1,7.87,0.00
312472,0.00,0.00,-0.05,0.00,0.00,-0.12,-2.3,-1.6,19.5,57.02,-1.41,0.000000,0.000000,0,1,7.87,0.00
312778,0.00,0.00,-0.05,0.12,-0.18,0.12,-2.3,-1.6,19.5,57.02,-1.43,0.000000,0.000000,0,1,7.87,0.00
313084,0.00,-0.00,-0.05,0.06,0.06,-0.18,-2.3,-1.6,19.5,57.03,-1.41,0.000000,0.000000,0,1,7.87,0.00
313390,0.00,0.01,-0.05,-0.12,-0.06,0.06,-2.3,-1.6,19.5,57.03,-1.40,0.000000,0.000000,0,1,7.87,0.00
313696,0.00,0.00,-0.07,0.06,0.06,0.12,-2.3,-1.6,19.5,57.03,-1.42,0.000000,0.000000,0,1,7.87,0.00
314002,-0.00,0.00,-0.07,-0.12,0.06,0.06,-2.3,-1.6,19.5,57.04,-1.42,0.000000,0.000000,0,1,7.86,0.00
314614,0.00,-0.02,-0.11,0.00,-0.06,0.12,-2.3,-1.6,19.5,57.04,-1.38,0.000000,0.000000,0,1,7.86,0.00
314920,0.00,0.00,-0.10,0.06,0.12,0.00,-2.3,-1.6,19.5,57.05,-1.38,0.000000,0.000000,0,1,7.87,0.00
315226,0.00,-0.01,-0.05,0.00,0.06,0.06,-2.3,-1.6,19.5,57.05,-1.41,0.000000,0.000000,0,1,7.87,0.00
315532,0.00,0.00,-0.07,0.06,0.00,0.12,-2.3,-1.6,19.5,57.06,-1.39,0.000000,0.000000,0,1,7.87,0.00
315838,0.00,0.00,-0.05,0.00,-0.06,0.00,-2.3,-1.6,19.5,57.06,-1.39,0.000000,0.000000,0,1,7.87,0.00
316144,0.01,-0.00,-0.07,-0.06,-0.18,0.12,-2.3,-1.6,19.5,57.06,-1.41,0.000000,0.000000,0,1,7.87,0.00
316450,0.00,0.00,-0.05,-0.06,-0.06,0.00,-2.3,-1.6,19.5,57.06,-1.41,0.000000,0.000000,0,1,7.87,0.00
316756,0.00,0.00,-0.07,-0.06,-0.06,0.06,-2.3,-1.6,19.5,57.07,-1.40,0.000000,0.000000,0,1,7.87,0.00
317062,0.00,0.00,-0.09,0.12,0.00,-0.06,-2.3,-1.6,19.5,57.07,-1.38,0.000000,0.000000,0,1,7.86,0.00
317368,0.00,0.00,-0.07,0.06,0.12,-0.18,-2.3,-1.6,19.5,57.07,-1.39,0.000000,0.000000,0,1,7.86,0.00
317674,0.00,0.00,-0.07,0.06,0.12,0.25,-2.3,-1.6,19.5,57.08,-1.41,0.000000,0.000000,0,1,7.86,0.00
317980,0.00,-0.01,-0.07,0.06,0.00,0.00,-2.3,-1.6,19.5,57.08,-1.43,0.000000,0.000000,0,1,7.87,0.00
318286,0.00,0.00,-0.07,0.00,0.18,-0.12,-2.3,-1.6,19.5,57.09,-1.46,0.000000,0.000000,0,1,7.87,0.00
318592,0.00,0.00,-0.05,0.06,0.00,0.18,-2.3,-1.6,19.5,57.09,-1.45,0.000000,0.000000,0,1,7.87,0.00
318898,0.00,0.00,-0.07,-0.06,0.00,-0.06,-2.3,-1.6,19.5,57.10,-1.44,0.000000,0.000000,0,1,7.87,0.00
319204,0.00,0.00,-0.07,0.00,-0.12,0.12,-2.3,-1.6,19.5,57.10,-1.43,0.000000,0.000000,0,1,7.87,0.00
319510,0.00,0.00,-0.07,0.06,0.00,-0.06,-2.3,-1.6,19.5,57.10,-1.42,0.000000,0.000000,0,1,7.87,0.00
319816,0.00,0.00,-0.07,0.06,-0.12,-0.06,-2.3,-1.6,19.5,57.11,-1.43,0.000000,0.000000,0,1,7.87,0.00
320122,0.00,-0.00,-0.10,0.12,-0.06,0.12,-2.3,-1.6,19.5,57.11,-1.45,0.000000,0.000000,0,1,7.87,0.00
320428,0.00,-0.00,-0.09,0.00,-0.18,0.18,-2.3,-1.6,19.5,57.11,-1.46,0.000000,0.000000,0,1,7.87,0.00
320734,0.00,0.00,-0.07,-0.06,0.12,0.06,-2.3,-1.6,19.5,57.12,-1.47,0.000000,0.000000,0,1,7.87,0.00
321040,0.00,0.00,-0.05,0.12,0.00,0.06,-2.3,-1.6,19.5,57.12,-1.47,0.000000,0.000000,0,1,7.87,0.00
321346,0.00,0.00,-0.07,0.00,-0.18,0.12,-2.3,-1.6,19.5,57.13,-1.46,0.000000,0.000000,0,1,7.87,0.00
321652,0.00,0.00,-0.03,-0.06,-0.12,0.06,-2.3,-1.6,19.5,57.13,-1.46,0.000000,0.000000,0,1,7.87,0.00
321958,-0.00,0.01,-0.07,0.00,-0.18,-0.31,-2.3,-1.6,19.5,57.14,-1.45,0.000000,0.000000,0,1,7.86,0.00
322264,0.00,0.00,-0.09,0.00,-0.18,0.06,-2.3,-1.6,19.5,57.14,-1.46,0.000000,0.000000,0,1,7.86,0.00
322570,0.00,0.00,-0.07,-0.12,0.06,-0.12,-2.3,-1.6,19.5,57.15,-1.46,0.000000,0.000000,0,1,7.86,0.00
322876,0.00,0.00,-0.07,0.00,-0.06,0.00,-2.3,-1.6,19.5,57.15,-1.47,0.000000,0.000000,0,1,7.90,0.00
323182,0.00,0.00,-0.07,0.06,-0.12,-0.06,-2.3,-1.6,19.5,57.16,-1.50,0.000000,0.000000,0,1,7.90,0.00
323488,0.00,0.01,-0.07,0.06,0.00,-0.06,-2.3,-1.6,19.5,57.16,-1.49,0.000000,0.000000,0,1,7.90,0.00
323794,0.00,-0.00,-0.05,-0.06,0.06,0.12,-2.3,-1.6,19.5,57.16,-1.51,0.000000,0.000000,0,1,7.90,0.00
324100,-0.01,0.00,-0.03,0.00,0.12,0.12,-2.3,-1.6,19.5,57.17,-1.52,0.000000,0.000000,0,1,7.87,0.00
324406,0.00,0.00,-0.07,-0.12,0.00,-0.12,-2.3,-1.6,19.5,57.17,-1.50,0.000000,0.000000,0,1,7.87,0.00
324712,0.00,0.00,-0.05,0.00,-0.06,0.00,-2.3,-1.6,19.5,57.18,-1.49,0.000000,0.000000,0,1,7.87,0.00
325018,0.00,0.00,-0.07,0.00,-0.12,0.00,-2.3,-1.6,19.5,57.18,-1.47,0.000000,0.000000,0,1,7.86,0.00
325324,0.00,0.00,-0.09,-0.06,-0.06,0.18,-2.3,-1.6,19.5,57.19,-1.46,0.000000,0.000000,0,1,7.86,0.00
325630,-0.00,0.00,-0.10,-0.06,-0.06,0.37,-2.3,-1.6,19.5,57.19,-1.46,0.000000,0.000000,0,1,7.86,0.00
325936,0.00,0.00,-0.07,0.06,0.00,-0.12,-2.3,-1.6,19.5,57.20,-1.47,0.000000,0.000000,0,1,7.87,0.00
326548,0.00,0.00,-0.07,-0.06,0.00,0.18,-2.3,-1.6,19.5,57.21,-1.46,0.000000,0.000000,0,1,7.87,0.00
326854,0.00,0.00,-0.05,0.00,-0.06,-0.06,-2.3,-1.6,19.5,57.21,-1.46,0.000000,0.000000,0,1,7.87,0.00
327160,0.00,0.00,-0.07,-0.06,0.06,-0.06,-2.3,-1.6,19.5,57.21,-1.47,0.000000,0.000000,0,1,7.87,0.00
327466,0.00,0.00,-0.09,0.12,0.06,0.18,-2.3,-1.6,19.5,57.22,-1.46,0.000000,0.000000,0,1,7.87,0.00
327772,0.00,0.00,-0.07,0.00,-0.06,0.12,-2.3,-1.6,19.5,57.22,-1.45,0.000000,0.000000,0,1,7.87,0.00
328078,0.00,0.03,-0.07,0.00,0.12,0.06,-2.3,-1.6,19.5,57.23,-1.44,0.000000,0.000000,0,1,7.88,0.00
328384,0.00,0.01,-0.09,0.06,0.06,-0.18,-2.3,-1.6,19.5,57.23,-1.42,0.000000,0.000000,0,1,7.88,0.00
328690,0.00,0.00,-0.07,0.06,-0.06,-0.12,-2.3,-1.6,19.5,57.24,-1.42,0.000000,0.000000,0,1,7.88,0.00
328996,0.00,0.00,-0.07,0.00,0.06,-0.12,-2.3,-1.6,19.5,57.24,-1.41,0.000000,0.000000,0,1,7.87,0.00
329302,0.00,0.00,-0.03,-0.18,0.00,-0.06,-2.3,-1.6,19.5,57.24,-1.42,0.000000,0.000000,0,1,7.87,0.00
329608,0.00,-0.00,-0.05,0.06,-0.06,-0.25,-2.3,-1.6,19.5,57.25,-1.42,0.000000,0.000000,0,1,7.87,0.00
329914,0.00,0.00,-0.05,0.06,0.06,-0.06,-2.3,-1.6,19.5,57.25,-1.42,0.000000,0.000000,0,1,7.87,0.00
330220,0.00,0.00,-0.07,0.12,0.06,0.12,-2.3,-1.6,19.5,57.25,-1.41,0.000000,0.000000,0,1,7.87,0.00
330526,-0.00,0.00,-0.07,-0.12,0.00,-0.06,-2.3,-1.6,19.5,57.26,-1.40,0.000000,0.000000,0,1,7.87,0.00
330832,0.00,-0.00,-0.10,0.06,0.06,0.06,-2.3,-1.6,19.5,57.26,-1.39,0.000000,0.000000,0,1,7.87,0.00
331138,0.00,0.00,-0.07,0.12,0.06,0.25,-2.3,-1.6,19.5,57.27,-1.40,0.000000,0.000000,0,1,7.87,0.00
331444,0.00,0.00,-0.07,0.06,-0.12,0.00,-2.3,-1.6,19.5,57.27,-1.41,0.000000,0.000000,0,1,7.87,0.00
331750,0.00,0.01,-0.07,0.18,0.12,0.06,-2.3,-1.6,19.5,57.28,-1.42,0.000000,0.000000,0,1,7.87,0.00
332056,0.00,-0.00,-0.09,0.00,0.06,0.06,-2.3,-1.6,19.5,57.28,-1.42,0.000000,0.000000,0,1,7.87,0.00
332362,-0.00,0.00,-0.07,-0.18,-0.06,-0.12,-2.3,-1.6,19.5,57.28,-1.44,0.000000,0.000000,0,1,7.87,0.00
332974,0.00,0.01,-0.03,0.00,0.12,-0.12,-2.3,-1.6,19.5,57.30,-1.47,0.000000,0.000000,0,1,7.87,0.00
333280,0.00,0.00,-0.07,0.00,-0.12,-0.06,-2.3,-1.6,19.5,57.30,-1.49,0.000000,0.000000,0,1,7.87,0.00
333586,0.00,-0.01,-0.10,0.06,0.12,-0.18,-2.3,-1.6,19.5,57.31,-1.49,0.000000,0.000000,0,1,7.87,0.00
333892,0.00,0.00,-0.07,0.18,0.12,0.06,-2.3,-1.6,19.5,57.31,-1.47,0.000000,0.000000,0,1,7.87,0.00
334198,0.00,-0.00,-0.09,0.00,-0.18,0.00,-2.3,-1.6,19.5,57.31,-1.45,0.000000,0.000000,0,1,7.87,0.00
334504,0.00,0.00,-0.05,0.06,0.06,0.06,-2.3,-1.6,19.5,57.32,-1.42,0.000000,0.000000,0,1,7.87,0.00
334810,0.00,0.00,-0.07,-0.06,0.12,0.00,-2.3,-1.6,19.5,57.32,-1.40,0.000000,0.000000,0,1,7.87,0.00
335116,0.00,0.00,-0.05,0.00,0.00,0.06,-2.3,-1.6,19.5,57.32,-1.37,0.000000,0.000000,0,1,7.87,0.00
335422,-0.00,0.00,-0.07,0.00,0.06,0.06,-2.3,-1.6,19.5,57.33,-1.35,0.000000,0.000000,0,1,7.87,0.00
335728,0.00,0.00,-0.05,0.00,0.12,-0.12,-2.3,-1.6,19.5,57.33,-1.39,0.000000,0.000000,0,1,7.87,0.00
336034,0.00,0.01,-0.07,0.00,0.00,0.12,-2.3,-1.6,19.5,57.34,-1.39,0.000000,0.000000,0,1,7.87,0.00
336340,0.00,0.00,-0.11,0.06,-0.06,-0.06,-2.3,-1.6,19.5,57.34,-1.38,0.000000,0.000000,0,1,7.87,0.00
336646,-0.00,0.00,-0.09,0.06,-0.12,0.00,-2.3,-1.6,19.5,57.34,-1.36,0.000000,0.000000,0,1,7.87,0.00
336952,0.00,0.00,-0.05,0.06,0.25,0.31,-2.3,-1.6,19.5,57.35,-1.35,0.000000,0.000000,0,1,7.87,0.00
337258,0.00,-0.00,-0.05,0.00,0.06,0.06,-2.3,-1.6,19.5,57.35,-1.31,0.000000,0.000000,0,1,7.87,0.00
337564,0.00,0.00,-0.07,0.12,-0.06,-0.18,-2.3,-1.6,19.5,57.35,-1.32,0.000000,0.000000,0,1,7.87,0.00
337870,-0.00,-0.00,-0.07,0.00,0.00,-0.18,-2.3,-1.6,19.5,57.36,-1.37,0.000000,0.000000,0,1,7.87,0.00
338176,0.00,0.00,-0.05,-0.06,-0.06,0.18,-2.3,-1.6,19.5,57.36,-1.36,0.000000,0.000000,0,1,7.87,0.00
338482,0.00,0.02,-0.05,0.06,0.00,0.06,-2.3,-1.6,19.5,57.36,-1.35,0.000000,0.000000,0,1,7.87,0.00
338788,-0.00,0.00,-0.09,0.12,0.06,0.00,-2.3,-1.6,19.5,57.37,-1.38,0.000000,0.000000,0,1,7.87,0.00
339094,0.00,0.00,-0.10,0.00,-0.06,-0.18,-2.3,-1.6,19.5,57.37,-1.40,0.000000,0.000000,0,1,7.87,0.00
339400,0.00,0.00,-0.07,-0.06,-0.12,-0.06,-2.3,-1.6,19.5,57.38,-1.35,0.000000,0.000000,0,1,7.87,0.00
339706,0.00,0.00,-0.05,0.12,0.12,0.00,-2.3,-1.6,19.5,57.38,-1.35,0.000000,0.000000,0,1,7.87,0.00
340012,0.00,0.00,-0.09,0.18,0.00,0.06,-2.3,-1.6,19.5,57.38,-1.31,0.000000,0.000000,0,1,7.87,0.00
340318,0.00,-0.00,-0.07,0.00,0.12,0.00,-2.3,-1.6,19.5,57.39,-1.44,0.000000,0.000000,0,1,7.87,0.00
340624,0.00,0.00,-0.07,0.06,-0.12,0.06,-2.3,-1.6,19.5,57.39,-1.50,0.000000,0.000000,0,1,7.87,0.00
340930,0.00,0.00,-0.07,-0.06,0.12,-0.25,-2.3,-1.6,19.5,57.40,-1.47,0.000000,0.000000,0,1,7.87,0.00
341236,0.00,0.00,-0.07,-0.06,-0.12,0.00,-2.3,-1.6,19.5,57.40,-1.43,0.000000,0.000000,0,1,7.87,0.00
341542,0.00,0.00,-0.07,0.06,0.00,-0.18,-2.3,-1.6,19.5,57.41,-1.45,0.000000,0.000000,0,1,7.87,0.00
341848,0.00,0.00,-0.07,0.00,0.12,-0.12,-2.3,-1.6,19.5,57.41,-1.45,0.000000,0.000000,0,1,7.87,0.00
342154,-0.00,0.00,-0.10,0.00,0.00,0.06,-2.3,-1.6,19.5,57.41,-1.47,0.000000,0.000000,0,1,7.87,0.00
342460,0.00,0.00,-0.07,0.18,-0.12,0.12,-2.3,-1.6,19.5,57.42,-1.45,0.000000,0.000000,0,1,7.87,0.00
342766,0.00,0.00,-0.07,0.06,0.00,0.00,-2.3,-1.6,19.5,57.42,-1.39,0.000000,0.000000,0,1,7.87,0.00
343072,0.00,0.00,-0.07,-0.12,0.06,0.06,-2.3,-1.6,19.5,57.43,-1.37,0.000000,0.000000,0,1,7.87,0.00
343378,0.00,-0.00,-0.07,0.00,0.12,-0.06,-2.3,-1.6,19.5,57.43,-1.35,0.000000,0.000000,0,1,7.87,0.00
343684,0.00,0.00,-0.07,0.06,0.18,0.00,-2.3,-1.6,19.5,57.43,-1.37,0.000000,0.000000,0,1,7.87,0.00
343990,-0.01,0.00,-0.07,-0.06,0.00,0.12,-2.3,-1.6,19.5,57.44,-1.36,0.000000,0.000000,0,1,7.87,0.00
344296,0.00,0.00,-0.07,0.06,0.06,-0.06,-2.3,-1.6,19.5,57.44,-1.31,0.000000,0.000000,0,1,7.86,0.00
344602,0.00,0.00,-0.07,0.00,0.00,-0.12,-2.3,-1.6,19.5,57.44,-1.33,0.000000,0.000000,0,1,7.86,0.00
344908,0.00,0.00,-0.07,-0.06,0.12,0.12,-2.3,-1.6,19.5,57.45,-1.36,0.000000,0.000000,0,1,7.86,0.00
345214,0.00,0.00,-0.07,0.00,0.00,0.00,-2.3,-1.6,19.5,57.45,-1.34,0.000000,0.000000,0,1,7.87,0.00
345520,0.00,-0.00,-0.07,0.00,-0.06,0.12,-2.3,-1.6,19.5,57.45,-1.34,0.000000,0.000000,0,1,7.87,0.00
345826,0.00,0.00,-0.05,-0.06,-0.06,0.00,-2.3,-1.6,19.5,57.45,-1.36,0.000000,0.000000,0,1,7.87,0.00
346132,0.00,0.00,-0.05,0.12,0.31,-0.12,-2.3,-1.6,19.5,57.46,-1.39,0.000000,0.000000,0,1,7.86,0.00
346438,0.00,0.00,-0.07,0.06,-0.12,-0.18,-2.3,-1.6,19.5,57.46,-1.45,0.000000,0.000000,0,1,7.86,0.00
346744,-0.00,0.00,-0.03,0.06,-0.06,-0.06,-2.3,-1.6,19.5,57.47,-1.48,0.000000,0.000000,0,1,7.86,0.00
347050,0.00,0.00,-0.05,0.06,-0.12,0.25,-2.3,-1.6,19.5,57.47,-1.48,0.000000,0.000000,0,1,7.86,0.00
347356,0.00,0.01,-0.10,-0.06,-0.12,-0.06,-2.3,-1.6,19.5,57.48,-1.46,0.000000,0.000000,0,1,7.86,0.00
347662,0.00,0.00,-0.09,0.06,0.00,-0.12,-2.3,-1.6,19.5,57.48,-1.44,0.000000,0.000000,0,1,7.86,0.00
347968,-0.00,0.00,-0.05,-0.06,-0.06,0.18,-2.3,-1.6,19.5,57.48,-1.45,0.000000,0.000000,0,1,7.86,0.00
348274,0.00,0.00,-0.05,0.06,0.00,0.00,-2.3,-1.6,19.5,57.49,-1.47,0.000000,0.000000,0,1,7.87,0.00
348580,0.00,0.00,-0.07,0.06,-0.12,0.06,-2.3,-1.6,19.5,57.49,-1.48,0.000000,0.000000,0,1,7.87,0.00
348886,0.00,-0.01,-0.07,-0.06,0.06,0.12,-2.3,-1.6,19.5,57.50,-1.50,0.000000,0.000000,0,1,7.87,0.00
349192,0.00,0.00,-0.05,-0.06,-0.06,0.00,-2.3,-1.6,19.5,57.51,-1.56,0.000000,0.000000,0,1,7.87,0.00
349498,0.00,0.00,-0.09,0.12,0.06,0.25,-2.3,-1.6,19.5,57.51,-1.60,0.000000,0.000000,0,1,7.87,0.00
349804,0.00,0.00,-0.03,0.00,-0.06,0.00,-2.3,-1.6,19.5,57.52,-1.55,0.000000,0.000000,0,1,7.87,0.00
350110,0.00,0.00,-0.07,0.12,-0.12,-0.12,-2.3,-1.6,19.5,57.52,-1.56,0.000000,0.000000,0,1,7.87,0.00
350416,0.00,0.00,-0.10,0.06,0.18,0.18,-2.3,-1.6,19.5,57.52,-1.58,0.000000,0.000000,0,1,7.87,0.00
350722,0.01,0.00,-0.09,-0.06,-0.06,0.06,-2.3,-1.6,19.5,57.53,-1.58,0.000000,0.000000,0,1,7.87,0.00
351028,0.00,0.01,-0.07,-0.12,0.06,0.00,-2.3,-1.6,19.5,57.53,-1.52,0.000000,0.000000,0,1,7.87,0.00
351334,0.00,-0.00,-0.07,0.06,-0.25,0.06,-2.3,-1.6,19.5,57.53,-1.40,0.000000,0.000000,0,1,7.87,0.00
351640,0.00,0.00,-0.07,0.00,-0.12,0.06,-2.3,-1.6,19.5,57.53,-1.30,0.000000,0.000000,0,1,7.87,0.00
351946,0.00,0.00,-0.07,0.00,-0.18,-0.18,-2.3,-1.6,19.5,57.53,-1.24,0.000000,0.000000,0,1,7.87,0.00
352252,0.00,0.00,-0.07,0.00,-0.06,0.06,-2.3,-1.6,19.5,57.54,-1.18,0.000000,0.000000,0,1,7.87,0.00
352558,0.00,-0.00,-0.07,-0.06,0.06,0.06,-2.3,-1.6,19.5,57.54,-1.17,0.000000,0.000000,0,1,7.87,0.00
352864,0.00,0.00,-0.09,0.12,0.18,0.06,-2.3,-1.6,19.5,57.54,-1.20,0.000000,0.000000,0,1,7.87,0.00
353170,0.00,0.00,-0.07,0.12,-0.06,-0.25,-2.3,-1.6,19.5,57.54,-1.28,0.000000,0.000000,0,1,7.87,0.00
353476,0.00,0.00,-0.07,0.00,0.00,-0.12,-2.3,-1.6,19.5,57.55,-1.30,0.000000,0.000000,0,1,7.87,0.00
353782,0.00,0.00,-0.07,0.06,0.06,0.00,-2.3,-1.6,19.5,57.55,-1.33,0.000000,0.000000,0,1,7.87,0.00
354088,0.00,0.00,-0.07,0.12,0.00,0.00,-2.3,-1.6,19.5,57.55,-1.32,0.000000,0.000000,0,1,7.87,0.00
354394,0.00,0.00,-0.07,0.00,-0.12,0.12,-2.3,-1.6,19.5,57.56,-1.29,0.000000,0.000000,0,1,7.87,0.00
354700,-0.00,0.00,-0.03,0.00,0.00,0.06,-2.3,-1.6,19.5,57.56,-1.25,0.000000,0.000000,0,1,7.87,0.00
355006,0.00,0.00,-0.05,0.06,0.06,-0.06,-2.3,-1.6,19.5,57.56,-1.23,0.000000,0.000000,0,1,7.87,0.00
355312,0.00,0.00,-0.05,0.06,0.25,0.00,-2.3,-1.6,19.5,57.56,-1.23,0.000000,0.000000,0,1,7.86,0.00
355618,-0.00,0.00,-0.07,0.12,-0.18,-0.18,-2.3,-1.6,19.5,57.57,-1.27,0.000000,0.000000,0,1,7.86,0.00
355924,0.00,0.00,-0.10,-0.06,-0.18,0.25,-2.3,-1.6,19.5,57.57,-1.32,0.000000,0.000000,0,1,7.86,0.00
356230,0.00,0.00,-0.09,0.06,0.00,-0.18,-2.3,-1.6,19.5,57.58,-1.41,0.000000,0.000000,0,1,7.87,0.00
356536,0.00,0.00,-0.05,0.06,-0.06,0.12,-2.3,-1.6,19.5,57.58,-1.43,0.000000,0.000000,0,1,7.87,0.00
356842,0.00,0.00,-0.09,-0.12,-0.12,-0.31,-2.3,-1.6,19.5,57.58,-1.42,0.000000,0.000000,0,1,7.87,0.00
357148,0.00,0.00,-0.07,0.00,0.06,-0.12,-2.3,-1.6,19.5,57.59,-1.38,0.000000,0.000000,0,1,7.87,0.00
357454,0.00,0.00,-0.05,0.12,0.06,0.12,-2.3,-1.6,19.5,57.59,-1.38,0.000000,0.000000,0,1,7.86,0.00
357760,0.00,-0.00,-0.07,-0.06,0.06,-0.25,-2.3,-1.6,19.5,57.59,-1.37,0.000000,0.000000,0,1,7.86,0.00
358066,0.00,0.00,-0.05,0.00,-0.06,0.00,-2.3,-1.6,19.5,57.59,-1.33,0.000000,0.000000,0,1,7.86,0.00
358372,0.00,0.00,-0.09,-0.06,0.00,-0.18,-2.3,-1.6,19.5,57.60,-1.32,0.000000,0.000000,0,1,7.87,0.00
358678,0.00,0.00,-0.07,0.00,0.18,0.06,-2.3,-1.6,19.5,57.60,-1.32,0.000000,0.000000,0,1,7.87,0.00
358984,0.00,0.00,-0.07,-0.06,0.00,0.00,-2.3,-1.6,19.5,57.60,-1.29,0.000000,0.000000,0,1,7.87,0.00
359290,0.00,-0.00,-0.07,0.06,0.06,0.00,-2.3,-1.6,19.5,57.60,-1.28,0.000000,0.000000,0,1,7.87,0.00
359596,0.01,0.00,-0.07,-0.06,0.12,0.18,-2.3,-1.6,19.5,57.61,-1.26,0.000000,0.000000,0,1,7.87,0.00
359902,0.00,0.00,-0.05,-0.06,0.12,0.06,-2.3,-1.6,19.5,57.61,-1.27,0.000000,0.000000,0,1,7.87,0.00
360208,0.00,0.00,-0.07,-0.06,0.00,0.00,-2.3,-1.6,19.5,57.61,-1.27,0.000000,0.000000,0,1,7.86,0.00
360514,0.00,0.00,-0.05,0.06,-0.18,-0.25,-2.3,-1.6,19.5,57.61,-1.33,0.000000,0.000000,0,1,7.86,0.00
360820,0.00,-0.00,-0.07,0.00,0.06,-0.18,-2.3,-1.6,19.5,57.62,-1.37,0.000000,0.000000,0,1,7.86,0.00
361126,0.00,0.00,-0.05,0.00,0.12,-0.06,-2.3,-1.6,19.5,57.62,-1.34,0.000000,0.000000,0,1,7.86,0.00
361432,0.00,0.00,-0.05,-0.06,0.00,0.12,-2.3,-1.6,19.5,57.62,-1.28,0.000000,0.000000,0,1,7.86,0.00
361738,0.00,0.00,-0.07,-0.12,0.06,-0.06,-2.3,-1.6,19.5,57.63,-1.25,0.000000,0.000000,0,1,7.86,0.00
362044,-0.01,-0.00,-0.03,0.06,0.00,0.18,-2.3,-1.6,19.5,57.63,-1.23,0.000000,0.000000,0,1,7.86,0.00
362350,0.00,0.02,-0.07,0.00,0.00,0.18,-2.3,-1.6,19.5,57.63,-1.24,0.000000,0.000000,0,1,7.86,0.00
362656,0.00,0.00,-0.07,0.12,-0.18,-0.12,-2.3,-1.6,19.5,57.64,-1.30,0.000000,0.000000,0,1,7.86,0.00
362962,0.00,0.00,-0.07,0.00,-0.06,0.12,-2.3,-1.6,19.5,57.64,-1.41,0.000000,0.000000,0,1,7.86,0.00
363268,0.00,0.00,-0.07,-0.06,-0.12,0.31,-2.3,-1.6,19.5,57.64,-1.50,0.000000,0.000000,0,1,7.86,0.00
363574,0.00,0.01,-0.05,-0.06,0.00,-0.06,-2.3,-1.6,19.5,57.65,-1.52,0.000000,0.000000,0,1,7.86,0.00
363880,0.00,0.00,-0.07,0.00,0.06,0.00,-2.3,-1.6,19.5,57.65,-1.47,0.000000,0.000000,0,1,7.86,0.00
364186,0.00,0.00,-0.09,0.00,0.25,0.25,-2.3,-1.6,19.5,57.66,-1.41,0.000000,0.000000,0,1,7.86,0.00
364492,-0.00,0.01,-0.05,0.00,0.06,-0.18,-2.3,-1.6,19.5,57.66,-1.32,0.000000,0.000000,0,1,7.86,0.00
364798,0.00,0.00,-0.05,0.06,0.06,0.12,-2.3,-1.6,19.5,57.66,-1.26,0.000000,0.000000,0,1,7.86,0.00
365104,0.00,0.00,-0.05,0.06,-0.06,-0.06,-2.3,-1.6,19.5,57.66,-1.27,0.000000,0.000000,0,1,7.86,0.00
365410,0.00,-0.00,-0.07,0.25,0.12,0.00,-2.3,-1.6,19.5,57.66,-1.29,0.000000,0.000000,0,1,7.86,0.00
365716,0.01,0.00,-0.07,0.00,0.06,-0.06,-2.3,-1.6,19.5,57.66,-1.25,0.000000,0.000000,0,1,7.86,0.00
366022,0.00,0.00,-0.07,0.00,-0.06,0.06,-2.3,-1.6,19.5,57.67,-1.19,0.000000,0.000000,0,1,7.86,0.00
366328,0.00,-0.01,-0.05,0.06,-0.12,-0.06,-2.3,-1.6,19.5,57.67,-1.14,0.000000,0.000000,0,1,7.87,0.00
366634,-0.01,0.00,-0.05,-0.06,0.00,0.06,-2.3,-1.6,19.5,57.67,-1.20,0.000000,0.000000,0,1,7.87,0.00
366940,0.00,0.01,-0.07,0.00,-0.06,-0.06,-2.3,-1.6,19.5,57.67,-1.24,0.000000,0.000000,0,1,7.87,0.00
367246,0.00,0.01,-0.07,0.00,0.00,-0.06,-2.3,-1.6,19.5,57.68,-1.24,0.000000,0.000000,0,1,7.87,0.00
367552,0.00,0.00,-0.09,0.12,-0.06,0.12,-2.3,-1.6,19.5,57.68,-1.23,0.000000,0.000000,0,1,7.86,0.00
367858,-0.01,0.00,-0.07,-0.06,0.12,0.00,-2.3,-1.6,19.5,57.68,-1.23,0.000000,0.000000,0,1,7.86,0.00
368164,0.00,0.01,-0.05,0.12,0.00,0.12,-2.3,-1.6,19.5,57.68,-1.27,0.000000,0.000000,0,1,7.86,0.00
368470,0.00,0.00,-0.05,0.00,0.06,0.00,-2.3,-1.6,19.5,57.69,-1.25,0.000000,0.000000,0,1,7.86,0.00
368776,0.00,0.00,-0.03,0.00,-0.18,-0.06,-2.3,-1.6,19.5,57.69,-1.26,0.000000,0.000000,0,1,7.86,0.00
369082,-0.00,0.00,-0.10,-0.06,-0.06,-0.12,-2.3,-1.6,19.5,57.69,-1.14,0.000000,0.000000,0,1,7.86,0.00
369388,0.00,0.00,-0.07,0.00,0.00,0.00,-2.3,-1.6,19.5,57.69,-0.97,0.000000,0.000000,0,1,7.86,0.00
369694,0.00,0.00,-0.10,0.06,-0.25,-0.06,-2.3,-1.6,19.5,57.69,-1.01,0.000000,0.000000,0,1,7.86,0.00
370000,0.00,0.00,-0.09,-0.12,-0.06,0.00,-2.3,-1.6,19.5,57.69,-1.14,0.000000,0.000000,0,1,7.86,0.00
370306,0.00,0.00,-0.07,-0.06,-0.12,0.06,-2.3,-1.6,19.5,57.69,-1.19,0.000000,0.000000,0,1,7.86,0.00
370612,0.00,-0.00,-0.05,0.06,-0.06,0.06,-2.3,-1.6,19.5,57.69,-1.18,0.000000,0.000000,0,1,7.86,0.00
370918,0.00,0.00,-0.05,0.00,-0.12,0.00,-2.3,-1.6,19.5,57.69,-1.21,0.000000,0.000000,0,1,7.86,0.00
371224,0.00,0.00,-0.07,0.00,-0.12,-0.06,-2.3,-1.6,19.5,57.70,-1.33,0.000000,0.000000,0,1,7.86,0.00
371530,0.00,-0.01,-0.07,0.06,0.37,0.06,-2.3,-1.6,19.5,57.70,-1.40,0.000000,0.000000,0,1,7.86,0.00
371836,0.00,-0.00,-0.05,0.12,0.00,0.25,-2.3,-1.6,19.5,57.71,-1.41,0.000000,0.000000,0,1,7.86,0.00
372142,0.00,0.00,-0.07,0.00,-0.25,0.12,-2.3,-1.6,19.5,57.71,-1.29,0.000000,0.000000,0,1,7.86,0.00
372448,0.00,0.00,-0.09,0.00,-0.18,0.18,-2.3,-1.6,19.5,57.71,-1.32,0.000000,0.000000,0,1,7.87,0.00
372754,0.00,0.02,-0.09,-0.06,0.18,0.06,-2.3,-1.6,19.5,57.71,-1.26,0.000000,0.000000,0,1,7.87,0.00
373060,0.00,0.00,-0.03,-0.18,0.12,0.06,-2.3,-1.6,19.5,57.72,-1.28,0.000000,0.000000,0,1,7.87,0.00
373366,0.00,0.01,-0.05,-0.12,0.12,-0.06,-2.3,-1.6,19.5,57.72,-1.38,0.000000,0.000000,0,1,7.86,0.00
373672,0.00,-0.00,-0.11,0.00,0.00,-0.18,-2.3,-1.6,19.5,57.72,-1.47,0.000000,0.000000,0,1,7.86,0.00
373978,0.00,-0.00,-0.05,0.06,-0.12,-0.12,-2.3,-1.6,19.5,57.73,-1.53,0.000000,0.000000,0,1,7.86,0.00
374284,0.00,0.00,-0.07,0.06,-0.06,0.25,-2.3,-1.6,19.5,57.73,-1.56,0.000000,0.000000,0,1,7.86,0.00
374590,0.00,0.00,-0.07,0.12,-0.06,0.00,-2.3,-1.6,19.5,57.74,-1.52,0.000000,0.000000,0,1,7.86,0.00
374896,0.00,0.00,-0.07,-0.06,-0.06,0.12,-2.3,-1.6,19.5,57.74,-1.49,0.000000,0.000000,0,1,7.86,0.00
375202,0.00,-0.01,-0.09,0.00,-0.12,-0.18,-2.3,-1.6,19.5,57.75,-1.45,0.000000,0.000000,0,1,7.86,0.00
375508,0.00,0.00,-0.07,0.00,0.00,-0.25,-2.3,-1.6,19.5,57.75,-1.35,0.000000,0.000000,0,1,7.86,0.00
375814,-0.00,-0.01,-0.05,0.00,0.00,0.00,-2.3,-1.6,19.5,57.75,-1.29,0.000000,0.000000,0,1,7.86,0.00
376120,0.00,-0.00,-0.05,0.06,-0.06,0.06,-2.3,-1.6,19.5,57.75,-1.23,0.000000,0.000000,0,1,7.86,0.00
376426,0.00,0.00,-0.07,-0.12,-0.06,-0.06,-2.3,-1.6,19.5,57.75,-1.25,0.000000,0.000000,0,1,7.87,0.00
376732,0.00,0.00,-0.09,0.00,-0.12,0.18,-2.3,-1.6,19.5,57.76,-1.26,0.000000,0.000000,0,1,7.87,0.00
377038,0.00,0.00,-0.01,-0.06,0.06,-0.06,-2.3,-1.6,19.5,57.76,-1.25,0.000000,0.000000,0,1,7.87,0.00
377344,0.01,0.01,-0.03,-0.12,-0.12,-0.06,-2.3,-1.6,19.5,57.76,-1.21,0.000000,0.000000,0,1,7.87,0.00
377650,0.00,0.00,-0.05,0.00,-0.25,0.06,-2.3,-1.6,19.5,57.76,-1.21,0.000000,0.000000,0,1,7.86,0.00
377956,0.00,0.01,-0.09,0.12,-0.12,0.12,-2.3,-1.6,19.5,57.77,-1.21,0.000000,0.000000,0,1,7.86,0.00
378262,0.00,0.01,-0.05,-0.12,0.18,-0.06,-2.3,-1.6,19.5,57.77,-1.22,0.000000,0.000000,0,1,7.86,0.00
378568,0.00,0.00,-0.07,0.00,-0.12,0.06,-2.3,-1.6,19.5,57.77,-1.28,0.000000,0.000000,0,1,7.89,0.00
378874,0.00,-0.00,-0.07,0.00,-0.06,-0.12,-2.3,-1.6,19.5,57.77,-1.34,0.000000,0.000000,0,1,7.89,0.00
379180,0.00,-0.00,-0.05,-0.12,0.06,-0.25,-2.3,-1.6,19.5,57.78,-1.38,0.000000,0.000000,0,1,7.89,0.00
379486,-0.00,0.00,-0.07,0.12,0.06,-0.18,-2.3,-1.6,19.5,57.79,-1.41,0.000000,0.000000,0,1,7.87,0.00
379792,0.00,0.00,-0.05,-0.06,-0.06,0.18,-2.3,-1.6,19.5,57.79,-1.45,0.000000,0.000000,0,1,7.87,0.00
380098,0.00,0.00,-0.03,0.00,-0.12,-0.12,-2.3,-1.6,19.5,57.79,-1.46,0.000000,0.000000,0,1,7.87,0.00
380404,0.00,0.00,-0.07,0.00,-0.06,0.00,-2.3,-1.6,19.5,57.80,-1.51,0.000000,0.000000,0,1,7.86,0.00
380710,0.00,0.00,-0.07,0.00,-0.12,0.12,-2.3,-1.6,19.5,57.80,-1.45,0.000000,0.000000,0,1,7.86,0.00
381016,0.00,0.00,-0.11,0.12,-0.12,0.06,-2.3,-1.6,19.5,57.80,-1.42,0.000000,0.000000,0,1,7.86,0.00
381322,0.00,0.00,-0.09,0.00,0.06,0.12,-2.3,-1.6,19.5,57.81,-1.40,0.000000,0.000000,0,1,7.86,0.00
381628,-0.01,0.00,-0.05,0.12,0.06,0.06,-2.3,-1.6,19.5,57.81,-1.29,0.000000,0.000000,0,1,7.86,0.00
381934,0.00,0.00,-0.09,-0.12,-0.06,0.12,-2.3,-1.6,19.5,57.81,-1.14,0.000000,0.000000,0,1,7.86,0.00
382240,0.00,0.00,-0.09,-0.06,-0.06,-0.06,-2.3,-1.6,19.5,57.81,-1.03,0.000000,0.000000,0,1,7.86,0.00
382546,0.00,-0.00,-0.05,0.00,0.06,0.00,-2.3,-1.6,19.5,57.81,-1.04,0.000000,0.000000,0,1,7.85,0.00
382852,0.00,-0.00,-0.07,0.00,0.06,0.31,-2.3,-1.6,19.5,57.81,-1.12,0.000000,0.000000,0,1,7.85,0.00
383158,-0.02,-0.00,-0.10,0.18,-0.06,-0.18,-2.3,-1.6,19.5,57.81,-1.21,0.000000,0.000000,0,1,7.85,0.00
383464,0.00,-0.00,-0.05,0.12,0.12,0.00,-2.3,-1.6,19.5,57.82,-1.21,0.000000,0.000000,0,1,7.86,0.00
383770,0.00,0.00,-0.07,0.18,0.06,0.18,-2.3,-1.6,19.5,57.82,-1.18,0.000000,0.000000,0,1,7.86,0.00
384076,0.00,0.00,-0.05,0.00,0.06,0.00,-2.3,-1.6,19.5,57.82,-1.16,0.000000,0.000000,0,1,7.86,0.00
384382,-0.00,0.00,-0.07,0.06,-0.18,-0.06,-2.3,-1.6,19.5,57.82,-1.16,0.000000,0.000000,0,1,7.86,0.00
384688,0.00,0.00,-0.07,-0.06,0.00,0.18,-2.3,-1.6,19.5,57.82,-1.14,0.000000,0.000000,0,1,7.86,0.00
384994,0.00,0.00,-0.03,-0.06,0.12,0.12,-2.3,-1.6,19.5,57.83,-1.16,0.000000,0.000000,0,1,7.86,0.00
385300,-0.01,-0.01,-0.09,-0.06,0.12,-0.12,-2.3,-1.6,19.5,57.83,-1.21,0.000000,0.000000,0,1,7.86,0.00
385606,0.00,0.00,-0.09,0.06,-0.12,0.06,-2.3,-1.6,19.5,57.83,-1.33,0.000000,0.000000,0,1,7.87,0.00
385912,0.00,-0.01,-0.09,0.06,-0.06,0.06,-2.3,-1.6,19.5,57.84,-1.42,0.000000,0.000000,0,1,7.87,0.00
386218,0.00,0.01,-0.07,0.06,0.06,-0.18,-2.3,-1.6,19.5,57.84,-1.40,0.000000,0.000000,0,1,7.87,0.00
386524,-0.00,0.00,-0.07,0.06,0.25,-0.06,-2.3,-1.6,19.5,57.84,-1.36,0.000000,0.000000,0,1,7.86,0.00
386830,0.00,0.00,-0.07,0.06,0.12,0.18,-2.3,-1.6,19.5,57.84,-1.33,0.000000,0.000000,0,1,7.86,0.00
387136,-0.00,0.00,-0.05,0.00,-0.06,0.12,-2.3,-1.6,19.5,57.85,-1.22,0.000000,0.000000,0,1,7.86,0.00
387442,0.00,0.00,-0.07,-0.06,0.12,-0.12,-2.3,-1.6,19.5,57.84,-1.05,0.000000,0.000000,0,1,7.86,0.00
387748,0.00,0.00,-0.07,0.06,0.00,-0.06,-2.3,-1.6,19.5,57.85,-1.00,0.000000,0.000000,0,1,7.86,0.00
388054,0.00,-0.00,-0.05,0.00,-0.06,0.00,-2.3,-1.6,19.5,57.85,-0.99,0.000000,0.000000,0,1,7.86,0.00
388360,0.00,0.00,-0.10,0.06,-0.25,-0.12,-2.3,-1.6,19.5,57.85,-1.07,0.000000,0.000000,0,1,7.86,0.00
388666,0.00,0.00,-0.05,-0.06,0.00,0.12,-2.3,-1.6,19.5,57.85,-1.17,0.000000,0.000000,0,1,7.86,0.00
388972,0.00,0.00,-0.05,-0.12,0.12,0.12,-2.3,-1.6,19.5,57.85,-1.27,0.000000,0.000000,0,1,7.86,0.00
389278,0.00,0.00,-0.05,-0.18,-0.06,-0.12,-2.3,-1.6,19.5,57.86,-1.29,0.000000,0.000000,0,1,7.86,0.00
389584,0.00,0.00,-0.05,-0.12,-0.18,-0.06,-2.3,-1.6,19.5,57.86,-1.30,0.000000,0.000000,0,1,7.86,0.00
389890,0.00,0.00,-0.07,-0.06,0.00,0.12,-2.3,-1.6,19.5,57.86,-1.26,0.000000,0.000000,0,1,7.86,0.00
390196,0.00,0.00,-0.05,-0.06,0.12,-0.18,-2.3,-1.6,19.5,57.86,-1.17,0.000000,0.000000,0,1,7.86,0.00
390502,0.00,0.01,-0.05,0.00,-0.12,-0.06,-2.3,-1.6,19.5,57.86,-1.08,0.000000,0.000000,0,1,7.86,0.00
390808,0.00,0.00,-0.05,0.00,-0.06,-0.06,-2.3,-1.6,19.5,57.86,-1.02,0.000000,0.000000,0,1,7.86,0.00
391114,0.00,-0.01,-0.09,0.00,0.12,0.00,-2.3,-1.6,19.5,57.86,-0.99,0.000000,0.000000,0,1,7.86,0.00
391420,-0.00,0.00,-0.07,-0.06,0.25,-0.18,-2.3,-1.6,19.5,57.87,-0.98,0.000000,0.000000,0,1,7.86,0.00
391726,0.00,0.00,-0.07,0.00,0.00,-0.12,-2.3,-1.6,19.5,57.87,-0.97,0.000000,0.000000,0,1,7.86,0.00
392032,0.00,0.00,-0.07,0.06,0.06,-0.06,-2.3,-1.6,19.5,57.87,-1.00,0.000000,0.000000,0,1,7.86,0.00
392338,0.00,0.00,-0.09,0.00,-0.06,0.37,-2.3,-1.6,19.5,57.87,-1.06,0.000000,0.000000,0,1,7.86,0.00
392644,0.00,0.00,-0.07,0.18,0.00,0.06,-2.3,-1.6,19.5,57.87,-1.10,0.000000,0.000000,0,1,7.86,0.00
392950,0.00,0.00,-0.05,0.12,-0.12,-0.06,-2.3,-1.6,19.5,57.87,-1.11,0.000000,0.000000,0,1,7.86,0.00
393256,0.00,0.00,-0.07,-0.12,0.00,-0.12,-2.3,-1.6,19.5,57.87,-1.12,0.000000,0.000000,0,1,7.86,0.00
393562,0.00,0.00,-0.05,0.00,-0.12,0.00,-2.3,-1.6,19.5,57.88,-1.16,0.000000,0.000000,0,1,7.86,0.00
393868,0.00,0.00,-0.09,0.18,0.18,0.00,-2.3,-1.6,19.5,57.88,-1.18,0.000000,0.000000,0,1,7.86,0.00
394174,0.00,0.00,-0.07,0.06,-0.12,0.00,-2.3,-1.6,19.5,57.88,-1.17,0.000000,0.000000,0,1,7.86,0.00
394480,0.00,-0.00,-0.07,-0.06,0.06,-0.06,-2.3,-1.6,19.5,57.88,-1.17,0.000000,0.000000,0,1,7.86,0.00
394786,-0.00,0.00,-0.05,0.06,-0.25,-0.06,-2.3,-1.6,19.5,57.89,-1.22,0.000000,0.000000,0,1,7.85,0.00
395092,0.00,0.00,-0.07,0.00,0.06,0.12,-2.3,-1.6,19.5,57.89,-1.05,0.000000,0.000000,0,1,7.85,0.00
395398,0.00,-0.00,-0.07,0.00,0.06,0.43,-2.3,-1.6,19.5,57.89,-0.90,0.000000,0.000000,0,1,7.85,0.00
395704,0.00,0.00,-0.05,-0.12,0.06,-0.18,-2.3,-1.6,19.5,57.89,-0.96,0.000000,0.000000,0,1,7.86,0.00
396010,0.00,0.00,-0.07,-0.12,0.00,0.25,-2.3,-1.6,19.5,57.89,-0.79,0.000000,0.000000,0,1,7.86,0.00
396316,0.00,-0.01,-0.05,0.00,-0.06,0.18,-2.3,-1.6,19.5,57.88,-0.64,0.000000,0.000000,0,1,7.86,0.00
396622,0.00,0.00,-0.09,0.06,-0.12,-0.18,-2.3,-1.6,19.5,57.88,-0.99,0.000000,0.000000,0,1,7.85,0.00
396928,0.00,-0.01,-0.11,0.06,0.00,0.25,-2.3,-1.6,19.5,57.89,-1.25,0.000000,0.000000,0,1,7.85,0.00
397234,0.00,0.00,-0.07,0.06,-0.06,-0.31,-2.3,-1.6,19.5,57.89,-1.32,0.000000,0.000000,0,1,7.85,0.00
397540,-0.00,0.00,-0.07,0.06,0.00,0.00,-2.3,-1.6,19.5,57.90,-1.37,0.000000,0.000000,0,1,7.85,0.00
397846,-0.01,-0.00,-0.07,0.06,0.00,0.06,-2.3,-1.6,19.5,57.90,-1.32,0.000000,0.000000,0,1,7.86,0.00
398152,0.00,0.00,-0.03,-0.18,0.00,0.12,-2.3,-1.6,19.5,57.90,-1.31,0.000000,0.000000,0,1,7.86,0.00
398458,0.00,0.00,-0.07,0.06,0.06,0.06,-2.3,-1.6,19.5,57.90,-1.35,0.000000,0.000000,0,1,7.86,0.00
398764,0.01,-0.01,-0.05,-0.06,0.00,0.12,-2.3,-1.6,19.5,57.90,-1.23,0.000000,0.000000,0,1,7.86,0.00
399070,-0.00,0.00,-0.07,0.12,0.06,0.00,-2.3,-1.6,19.5,57.91,-1.22,0.000000,0.000000,0,1,7.86,0.00
399376,0.00,0.00,-0.09,0.00,-0.12,0.25,-2.3,-1.6,19.5,57.91,-1.20,0.000000,0.000000,0,1,7.86,0.00
399682,0.00,-0.00,-0.09,-0.06,0.12,0.06,-2.3,-1.6,19.5,57.91,-1.27,0.000000,0.000000,0,1,7.86,0.00
399988,0.00,0.00,-0.11,0.00,0.00,0.18,-2.3,-1.6,19.5,57.91,-1.22,0.000000,0.000000,0,1,7.86,0.00
400294,0.00,0.00,-0.10,0.00,-0.06,0.00,-2.3,-1.6,19.5,57.91,-1.28,0.000000,0.000000,0,1,7.86,0.00
400600,0.00,0.00,-0.05,-0.06,0.00,0.06,-2.3,-1.6,19.5,57.92,-1.14,0.000000,0.000000,0,1,7.85,0.00
400906,0.00,0.00,-0.05,-0.06,0.00,-0.06,-2.3,-1.6,19.5,57.92,-1.03,0.000000,0.000000,0,1,7.85,0.00
401212,-0.00,-0.00,-0.07,-0.06,-0.18,-0.12,-2.3,-1.6,19.5,57.91,-0.95,0.000000,0.000000,0,1,7.85,0.00
401518,0.00,-0.00,-0.07,0.00,0.00,0.00,-2.3,-1.6,19.5,57.91,-0.76,0.000000,0.000000,0,1,7.85,0.00
401824,0.00,0.01,-0.07,-0.06,0.06,-0.06,-2.3,-1.6,19.5,57.91,-0.70,0.000000,0.000000,0,1,7.85,0.00
402130,0.00,-0.02,-0.07,0.06,0.12,0.00,-2.3,-1.6,19.5,57.91,-0.67,0.000000,0.000000,0,1,7.85,0.00
402436,0.00,-0.03,-0.07,-0.06,0.12,-0.06,-2.3,-1.6,19.5,57.91,-0.81,0.000000,0.000000,0,1,7.85,0.00
402742,0.00,-0.01,-0.07,-0.06,0.06,-0.06,-2.3,-1.6,19.5,57.90,-0.79,0.000000,0.000000,0,1,7.86,0.00
403048,0.00,0.00,-0.07,0.00,0.06,0.06,-2.3,-1.6,19.5,57.91,-1.06,0.000000,0.000000,0,1,7.86,0.00
403354,0.00,0.00,-0.07,-0.06,0.06,0.06,-2.3,-1.6,19.5,57.91,-1.22,0.000000,0.000000,0,1,7.86,0.00
403660,0.00,0.00,-0.05,0.00,0.31,0.12,-2.3,-1.6,19.5,57.91,-1.35,0.000000,0.000000,0,1,7.85,0.00
403966,0.00,0.00,-0.07,0.00,0.06,-0.31,-2.3,-1.6,19.5,57.92,-1.31,0.000000,0.000000,0,1,7.85,0.00
404272,0.00,0.00,-0.05,-0.06,-0.06,-0.06,-2.3,-1.6,19.5,57.92,-1.27,0.000000,0.000000,0,1,7.85,0.00
404578,0.00,0.00,-0.07,0.12,0.00,0.06,-2.3,-1.6,19.5,57.92,-1.25,0.000000,0.000000,0,1,7.85,0.00
404884,0.00,0.00,-0.05,0.00,0.06,0.12,-2.3,-1.6,19.5,57.92,-1.20,0.000000,0.000000,0,1,7.86,0.00
405190,0.00,0.00,-0.07,0.00,0.06,0.06,-2.3,-1.6,19.5,57.92,-1.21,0.000000,0.000000,0,1,7.86,0.00
405496,0.00,0.00,-0.07,0.00,0.00,-0.06,-2.3,-1.6,19.5,57.92,-1.16,0.000000,0.000000,0,1,7.86,0.00
405802,0.00,-0.01,-0.05,0.06,0.12,0.06,-2.3,-1.6,19.5,57.93,-1.13,0.000000,0.000000,0,1,7.85,0.00
406108,-0.00,0.00,-0.05,0.00,0.06,-0.12,-2.3,-1.6,19.5,57.92,-0.96,0.000000,0.000000,0,1,7.85,0.00
406414,0.00,-0.00,-0.07,-0.18,0.00,0.00,-2.3,-1.6,19.5,57.93,-1.04,0.000000,0.000000,0,1,7.85,0.00
406720,0.00,0.00,-0.05,0.06,0.00,-0.06,-2.3,-1.6,19.5,57.92,-0.85,0.000000,0.000000,0,1,7.85,0.00
407026,-0.00,0.00,-0.05,-0.06,0.25,0.06,-2.3,-1.6,19.5,57.92,-0.67,0.000000,0.000000,0,1,7.85,0.00
407332,-0.00,0.01,-0.09,0.00,-0.06,-0.12,-2.3,-1.6,19.5,57.91,-0.75,0.000000,0.000000,0,1,7.85,0.00
407638,0.00,0.00,-0.05,0.06,0.18,0.06,-2.3,-1.6,19.5,57.91,-0.62,0.000000,0.000000,0,1,7.85,0.00
407944,0.00,0.00,-0.07,0.06,0.12,-0.12,-2.3,-1.6,19.5,57.91,-0.71,0.000000,0.000000,0,1,7.85,0.00
408250,0.00,-0.00,-0.10,0.00,0.06,0.18,-2.3,-1.6,19.5,57.91,-0.68,0.000000,0.000000,0,1,7.85,0.00
408556,0.00,0.01,-0.05,0.00,-0.12,-0.06,-2.3,-1.6,19.5,57.91,-0.79,0.000000,0.000000,0,1,7.85,0.00
408862,0.00,0.00,-0.05,-0.06,-0.06,-0.06,-2.3,-1.6,19.5,57.91,-0.73,0.000000,0.000000,0,1,7.86,0.00
409168,0.00,0.00,-0.07,-0.06,0.00,-0.12,-2.3,-1.6,19.5,57.90,-0.57,0.000000,0.000000,0,1,7.86,0.00
409474,0.00,0.00,-0.05,0.06,0.06,0.25,-2.3,-1.6,19.5,57.90,-0.64,0.000000,0.000000,0,1,7.86,0.00
409780,0.01,0.00,-0.03,-0.06,0.00,0.00,-2.3,-1.6,19.5,57.90,-0.75,0.000000,0.000000,0,1,7.86,0.00
410086,0.00,0.00,-0.05,0.06,-0.06,-0.12,-2.3,-1.6,19.5,57.90,-1.05,0.000000,0.000000,0,1,7.86,0.00
410392,0.00,-0.00,-0.07,0.06,0.06,-0.06,-2.3,-1.6,19.5,57.90,-1.29,0.000000,0.000000,0,1,7.86,0.00
410698,0.00,0.00,-0.07,-0.12,0.00,0.12,-2.3,-1.6,19.5,57.91,-1.43,0.000000,0.000000,0,1,7.84,0.00
411004,0.00,0.00,-0.07,-0.06,-0.12,-0.06,-2.3,-1.6,19.5,57.92,-1.48,0.000000,0.000000,0,1,7.84,0.00
411310,0.00,0.00,-0.05,0.00,-0.06,0.00,-2.3,-1.6,19.5,57.92,-1.40,0.000000,0.000000,0,1,7.84,0.00
411616,0.01,0.00,-0.07,0.06,0.06,0.00,-2.3,-1.6,19.5,57.92,-1.36,0.000000,0.000000,0,1,7.84,0.00
411922,0.00,-0.00,-0.03,-0.06,-0.06,-0.06,-2.3,-1.6,19.5,57.92,-1.32,0.000000,0.000000,0,1,7.85,0.00
412228,0.00,-0.01,-0.07,-0.06,0.00,0.00,-2.3,-1.6,19.5,57.92,-1.24,0.000000,0.000000,0,1,7.85,0.00
412534,0.00,0.00,-0.03,0.00,0.00,0.18,-2.3,-1.6,19.5,57.92,-1.09,0.000000,0.000000,0,1,7.85,0.00
412840,0.00,0.00,-0.07,0.00,0.00,0.12,-2.3,-1.6,19.5,57.92,-0.94,0.000000,0.000000,0,1,7.86,0.00
413146,0.00,0.00,-0.07,0.00,-0.06,0.00,-2.3,-1.6,19.5,57.92,-1.08,0.000000,0.000000,0,1,7.86,0.00
413452,0.00,0.00,-0.09,0.06,0.12,0.06,-2.3,-1.6,19.5,57.92,-1.20,0.000000,0.000000,0,1,7.86,0.00
413758,-0.01,0.01,-0.07,-0.12,0.18,0.18,-2.3,-1.6,19.5,57.93,-1.31,0.000000,0.000000,0,1,7.85,0.00
414064,0.00,0.00,-0.05,0.00,0.00,-0.06,-2.3,-1.6,19.5,57.93,-1.27,0.000000,0.000000,0,1,7.85,0.00
414370,0.00,0.00,-0.05,0.06,-0.06,-0.06,-2.3,-1.6,19.5,57.93,-1.26,0.000000,0.000000,0,1,7.85,0.00
414676,0.00,0.00,-0.05,-0.06,0.18,-0.06,-2.3,-1.6,19.5,57.93,-1.25,0.000000,0.000000,0,1,7.85,0.00
414982,-0.00,0.00,-0.07,0.00,-0.06,-0.18,-2.3,-1.6,19.5,57.93,-1.23,0.000000,0.000000,0,1,7.86,0.00
415288,0.00,0.00,-0.03,-0.06,0.12,0.25,-2.3,-1.6,19.5,57.94,-1.14,0.000000,0.000000,0,1,7.86,0.00
415594,0.00,0.00,-0.07,0.00,-0.12,0.06,-2.3,-1.6,19.5,57.94,-1.24,0.000000,0.000000,0,1,7.86,0.00
415900,0.00,-0.00,-0.05,-0.12,-0.06,0.00,-2.3,-1.6,19.5,57.94,-1.34,0.000000,0.000000,0,1,7.85,0.00
416206,0.00,0.00,-0.05,-0.06,0.06,-0.06,-2.3,-1.6,19.5,57.94,-1.37,0.000000,0.000000,0,1,7.85,0.00
416512,0.00,-0.02,-0.07,-0.12,0.00,0.18,-2.3,-1.6,19.5,57.95,-1.39,0.000000,0.000000,0,1,7.85,0.00
416818,0.00,0.01,-0.05,-0.06,0.12,0.37,-2.3,-1.6,19.5,57.95,-1.43,0.000000,0.000000,0,1,7.88,0.00
417124,-0.00,0.00,-0.05,-0.06,0.00,-0.18,-2.3,-1.6,19.5,57.95,-1.29,0.000000,0.000000,0,1,7.88,0.00
417430,0.00,0.00,-0.07,0.12,0.00,0.06,-2.3,-1.6,19.5,57.95,-1.27,0.000000,0.000000,0,1,7.88,0.00
417736,-0.01,-0.01,-0.05,0.00,-0.06,0.06,-2.3,-1.6,19.5,57.96,-1.28,0.000000,0.000000,0,1,7.88,0.00
418042,0.00,0.00,-0.07,0.00,-0.06,0.06,-2.3,-1.6,19.5,57.96,-1.32,0.000000,0.000000,0,1,7.85,0.00
418348,0.00,0.00,-0.07,0.06,-0.12,0.00,-2.3,-1.6,19.5,57.96,-1.32,0.000000,0.000000,0,1,7.85,0.00
418654,0.01,0.00,-0.03,0.06,0.00,-0.06,-2.3,-1.6,19.5,57.96,-1.26,0.000000,0.000000,0,1,7.85,0.00
418960,0.00,0.00,-0.03,0.06,0.12,-0.18,-2.3,-1.6,19.5,57.96,-1.21,0.000000,0.000000,0,1,7.85,0.00
419266,0.00,0.00,-0.10,0.06,0.00,0.00,-2.3,-1.6,19.5,57.97,-1.35,0.000000,0.000000,0,1,7.85,0.00
419572,0.00,0.00,-0.05,0.06,0.00,-0.18,-2.3,-1.6,19.5,57.97,-1.43,0.000000,0.000000,0,1,7.85,0.00
419878,-0.01,0.00,-0.07,-0.06,-0.06,-0.12,-2.3,-1.6,19.5,57.97,-1.36,0.000000,0.000000,0,1,7.86,0.00
420184,0.00,0.00,-0.07,0.06,-0.12,0.00,-2.3,-1.6,19.5,57.98,-1.33,0.000000,0.000000,0,1,7.86,0.00
420490,0.00,-0.00,-0.02,0.00,0.00,0.06,-2.3,-1.6,19.5,57.98,-1.32,0.000000,0.000000,0,1,7.86,0.00
420796,0.00,-0.00,-0.05,-0.06,-0.06,0.25,-2.3,-1.6,19.5,57.98,-1.23,0.000000,0.000000,0,1,7.85,0.00
421102,0.00,0.00,-0.05,0.00,0.00,0.12,-2.3,-1.6,19.5,57.98,-1.19,0.000000,0.000000,0,1,7.85,0.00
421408,0.00,0.00,-0.10,-0.06,0.12,-0.18,-2.3,-1.6,19.5,57.98,-1.30,0.000000,0.000000,0,1,7.85,0.00
421714,0.00,-0.00,-0.05,0.00,-0.06,-0.12,-2.3,-1.6,19.5,57.99,-1.41,0.000000,0.000000,0,1,7.85,0.00
422020,0.00,0.00,-0.07,0.12,0.00,-0.18,-2.3,-1.6,19.5,57.99,-1.36,0.000000,0.000000,0,1,7.85,0.00
422326,0.00,-0.00,-0.09,-0.06,0.12,0.06,-2.3,-1.6,19.5,57.99,-1.28,0.000000,0.000000,0,1,7.85,0.00
422632,0.00,0.00,-0.07,0.18,-0.25,-0.12,-2.3,-1.6,19.5,57.99,-1.37,0.000000,0.000000,0,1,7.85,0.00
422938,-0.01,-0.01,-0.05,-0.12,0.06,0.00,-2.3,-1.6,19.5,58.00,-1.44,0.000000,0.000000,0,1,7.85,0.00
423244,0.00,0.00,-0.07,-0.06,0.00,0.06,-2.3,-1.6,19.5,58.00,-1.42,0.000000,0.000000,0,1,7.85,0.00
423550,0.00,-0.00,-0.05,0.06,0.06,-0.06,-2.3,-1.6,19.5,58.00,-1.43,0.000000,0.000000,0,1,7.85,0.00
423856,0.00,0.00,-0.09,0.00,0.18,-0.06,-2.3,-1.6,19.5,58.00,-1.36,0.000000,0.000000,0,1,7.88,0.00
424162,0.00,0.00,-0.07,0.12,-0.12,0.06,-2.3,-1.6,19.5,58.01,-1.34,0.000000,0.000000,0,1,7.88,0.00
424468,0.00,0.00,-0.09,0.06,0.00,0.25,-2.3,-1.6,19.5,58.01,-1.24,0.000000,0.000000,0,1,7.88,0.00
424774,0.00,0.00,-0.07,0.12,0.06,0.06,-2.3,-1.6,19.5,58.01,-1.14,0.000000,0.000000,0,1,7.88,0.00
425080,0.00,-0.00,-0.03,-0.06,0.12,-0.25,-2.3,-1.6,19.5,58.01,-1.19,0.000000,0.000000,0,1,7.86,0.00
425386,-0.00,0.00,-0.07,0.00,0.06,0.06,-2.3,-1.6,19.5,58.01,-1.19,0.000000,0.000000,0,1,7.86,0.00
425692,0.00,0.01,-0.07,0.00,0.06,-0.06,-2.3,-1.6,19.5,58.01,-1.24,0.000000,0.000000,0,1,7.86,0.00
425998,0.00,0.01,-0.03,0.00,0.12,0.06,-2.3,-1.6,19.5,58.02,-1.38,0.000000,0.000000,0,1,7.85,0.00
426304,0.00,0.00,-0.05,0.06,-0.06,0.12,-2.3,-1.6,19.5,58.02,-1.37,0.000000,0.000000,0,1,7.85,0.00
426610,0.00,0.00,-0.07,0.00,-0.12,0.06,-2.3,-1.6,19.5,58.02,-1.29,0.000000,0.000000,0,1,7.85,0.00
426916,0.00,0.00,-0.07,0.00,0.18,0.12,-2.3,-1.6,19.5,58.02,-1.16,0.000000,0.000000,0,1,7.85,0.00
427222,0.00,0.00,-0.07,0.18,0.12,0.12,-2.3,-1.6,19.5,58.02,-1.16,0.000000,0.000000,0,1,7.85,0.00
427528,-0.00,-0.00,-0.07,-0.12,-0.06,-0.12,-2.3,-1.6,19.5,58.02,-1.20,0.000000,0.000000,0,1,7.85,0.00
427834,0.00,0.00,-0.05,0.06,-0.12,0.06,-2.3,-1.6,19.5,58.03,-1.23,0.000000,0.000000,0,1,7.85,0.00
428140,0.00,0.00,-0.05,-0.06,0.06,0.12,-2.3,-1.6,19.5,58.03,-1.29,0.000000,0.000000,0,1,7.85,0.00
428446,0.00,0.00,-0.05,0.12,0.18,-0.06,-2.3,-1.6,19.5,58.03,-1.28,0.000000,0.000000,0,1,7.85,0.00
428752,0.00,0.00,-0.03,0.06,-0.12,-0.12,-2.3,-1.6,19.5,58.03,-1.34,0.000000,0.000000,0,1,7.85,0.00
429058,0.00,0.00,-0.10,-0.06,0.00,0.00,-2.3,-1.6,19.5,58.04,-1.37,0.000000,0.000000,0,1,7.85,0.00
429364,0.00,0.00,-0.09,0.12,-0.18,0.18,-2.3,-1.6,19.5,58.04,-1.35,0.000000,0.000000,0,1,7.85,0.00
429670,0.00,0.00,-0.11,0.00,-0.18,-0.06,-2.3,-1.6,19.5,58.04,-1.33,0.000000,0.000000,0,1,7.85,0.00
429976,0.00,-0.00,-0.07,0.00,-0.06,0.00,-2.3,-1.6,19.5,58.04,-1.30,0.000000,0.000000,0,1,7.85,0.00
430282,0.00,0.00,-0.05,0.06,0.06,-0.18,-2.3,-1.6,19.5,58.04,-1.31,0.000000,0.000000,0,1,7.85,0.00
430588,0.00,0.00,-0.07,0.06,-0.18,-0.18,-2.3,-1.6,19.5,58.05,-1.38,0.000000,0.000000,0,1,7.85,0.00
430894,-0.01,0.01,-0.09,0.00,-0.06,0.18,-2.3,-1.6,19.5,58.06,-1.48,0.000000,0.000000,0,1,7.85,0.00
431200,0.00,0.00,-0.07,-0.06,0.06,0.18,-2.3,-1.6,19.5,58.06,-1.51,0.000000,0.000000,0,1,7.85,0.00
431506,-0.00,0.00,-0.05,-0.06,-0.25,-0.06,-2.3,-1.6,19.5,58.06,-1.45,0.000000,0.000000,0,1,7.85,0.00
431812,0.00,0.00,-0.07,0.00,-0.06,0.18,-2.3,-1.6,19.5,58.06,-1.41,0.000000,0.000000,0,1,7.85,0.00
432118,0.00,0.00,-0.09,0.06,-0.18,-0.06,-2.3,-1.6,19.5,58.07,-1.40,0.000000,0.000000,0,1,7.88,0.00
432424,-0.01,0.00,-0.09,0.00,0.06,-0.06,-2.3,-1.6,19.5,58.07,-1.41,0.000000,0.000000,0,1,7.88,0.00
432730,0.00,-0.00,-0.05,0.18,0.00,-0.25,-2.3,-1.6,19.5,58.08,-1.45,0.000000,0.000000,0,1,7.88,0.00
433036,0.00,0.00,-0.07,0.06,-0.06,0.18,-2.3,-1.6,19.5,58.08,-1.49,0.000000,0.000000,0,1,7.85,0.00
433342,0.00,-0.00,-0.07,0.00,-0.18,0.00,-2.3,-1.6,19.5,58.08,-1.50,0.000000,0.000000,0,1,7.85,0.00
433648,0.00,0.02,-0.05,-0.06,-0.12,-0.12,-2.3,-1.6,19.5,58.09,-1.51,0.000000,0.000000,0,1,7.85,0.00
433954,0.00,0.00,-0.07,0.12,-0.12,0.18,-2.3,-1.6,19.5,58.09,-1.52,0.000000,0.000000,0,1,7.85,0.00
434260,-0.00,0.01,-0.07,0.06,0.06,0.00,-2.3,-1.6,19.5,58.10,-1.51,0.000000,0.000000,0,1,7.85,0.00
434566,0.00,0.00,-0.07,-0.06,0.00,0.12,-2.3,-1.6,19.5,58.10,-1.49,0.000000,0.000000,0,1,7.85,0.00
434872,-0.01,0.00,-0.07,-0.06,-0.06,-0.06,-2.3,-1.6,19.5,58.10,-1.48,0.000000,0.000000,0,1,7.85,0.00
435178,0.00,0.00,-0.07,-0.18,0.18,0.25,-2.3,-1.6,19.5,58.11,-1.43,0.000000,0.000000,0,1,7.85,0.00
435484,0.00,0.00,-0.05,-0.06,0.00,-0.06,-2.3,-1.6,19.5,58.11,-1.43,0.000000,0.000000,0,1,7.85,0.00
435790,0.00,0.00,-0.07,0.00,0.06,-0.06,-2.3,-1.6,19.5,58.11,-1.39,0.000000,0.000000,0,1,7.85,0.00
436096,0.00,0.00,-0.05,0.00,-0.06,0.31,-2.3,-1.6,19.5,58.12,-1.33,0.000000,0.000000,0,1,7.85,0.00
436402,0.00,0.00,-0.05,0.06,-0.06,0.06,-2.3,-1.6,19.5,58.12,-1.28,0.000000,0.000000,0,1,7.85,0.00
436708,0.00,0.00,-0.07,-0.06,-0.31,0.18,-2.3,-1.6,19.5,58.12,-1.29,0.000000,0.000000,0,1,7.85,0.00
437014,0.00,0.00,-0.03,0.06,0.12,-0.06,-2.3,-1.6,19.5,58.13,-1.33,0.000000,0.000000,0,1,7.85,0.00
437320,0.00,-0.01,-0.09,0.06,0.12,0.06,-2.3,-1.6,19.5,58.13,-1.33,0.000000,0.000000,0,1,7.85,0.00
437626,0.00,0.00,-0.10,0.06,0.37,0.06,-2.3,-1.6,19.5,58.13,-1.24,0.000000,0.000000,0,1,7.85,0.00
437932,-0.00,0.00,-0.05,0.00,-0.12,-0.06,-2.3,-1.6,19.5,58.13,-1.31,0.000000,0.000000,0,1,7.85,0.00
438238,-0.00,0.00,-0.07,-0.12,-0.12,0.25,-2.3,-1.6,19.5,58.14,-1.42,0.000000,0.000000,0,1,7.85,0.00
438544,0.00,0.00,-0.07,0.06,0.06,0.12,-2.3,-1.6,19.5,58.14,-1.30,0.000000,0.000000,0,1,7.85,0.00
438850,0.00,0.00,-0.07,0.00,-0.18,0.12,-2.3,-1.6,19.5,58.14,-1.19,0.000000,0.000000,0,1,7.85,0.00
439156,-0.00,0.00,-0.05,-0.06,0.06,-0.12,-2.3,-1.6,19.5,58.14,-1.25,0.000000,0.000000,0,1,7.85,0.00
439462,0.00,0.02,-0.07,0.12,0.18,0.12,-2.3,-1.6,19.5,58.14,-1.34,0.000000,0.000000,0,1,7.85,0.00
439768,0.00,0.00,-0.07,0.00,0.00,-0.06,-2.3,-1.6,19.5,58.15,-1.19,0.000000,0.000000,0,1,7.85,0.00
440074,0.00,0.00,-0.09,0.00,0.06,0.12,-2.3,-1.6,19.5,58.15,-1.12,0.000000,0.000000,0,1,7.85,0.00
440380,0.00,0.00,-0.05,0.00,-0.06,0.06,-2.3,-1.6,19.5,58.15,-1.12,0.000000,0.000000,0,1,7.85,0.00
440686,0.00,0.00,-0.09,0.12,-0.06,-0.06,-2.3,-1.6,19.5,58.15,-1.16,0.000000,0.000000,0,1,7.85,0.00
440992,0.00,0.01,-0.05,0.06,0.06,-0.12,-2.3,-1.6,19.5,58.15,-1.24,0.000000,0.000000,0,1,7.85,0.00
441298,0.00,0.00,-0.07,0.06,-0.06,0.00,-2.3,-1.6,19.5,58.16,-1.29,0.000000,0.000000,0,1,7.85,0.00
441604,0.00,0.00,-0.05,0.06,-0.06,0.06,-2.3,-1.6,19.5,58.16,-1.33,0.000000,0.000000,0,1,7.85,0.00
441910,0.00,0.00,-0.07,-0.12,-0.18,0.18,-2.3,-1.6,19.5,58.16,-1.34,0.000000,0.000000,0,1,7.85,0.00
442216,0.00,-0.00,-0.05,0.06,-0.18,0.18,-2.3,-1.6,19.5,58.17,-1.35,0.000000,0.000000,0,1,7.84,0.00
442522,0.00,0.00,-0.05,-0.06,0.00,0.12,-2.3,-1.6,19.5,58.17,-1.33,0.000000,0.000000,0,1,7.84,0.00
442828,-0.00,0.00,-0.07,0.00,-0.12,-0.06,-2.3,-1.6,19.5,58.17,-1.34,0.000000,0.000000,0,1,7.84,0.00
443134,0.00,-0.01,-0.05,0.00,-0.06,-0.06,-2.3,-1.6,19.5,58.18,-1.33,0.000000,0.000000,0,1,7.85,0.00
443440,0.00,0.00,-0.05,0.06,-0.06,-0.25,-2.3,-1.6,19.5,58.18,-1.25,0.000000,0.000000,0,1,7.85,0.00
443746,0.00,0.00,-0.05,-0.12,0.06,-0.12,-2.3,-1.6,19.5,58.18,-1.23,0.000000,0.000000,0,1,7.85,0.00
444052,0.00,0.00,-0.07,0.00,0.06,0.06,-2.3,-1.6,19.5,58.18,-1.36,0.000000,0.000000,0,1,7.84,0.00
444358,-0.00,0.00,-0.05,-0.06,-0.12,-0.12,-2.3,-1.6,19.5,58.19,-1.41,0.000000,0.000000,0,1,7.84,0.00
444664,0.00,0.00,-0.05,-0.06,0.00,0.00,-2.3,-1.6,19.5,58.19,-1.31,0.000000,0.000000,0,1,7.84,0.00
444970,0.00,0.00,-0.07,-0.06,-0.06,0.00,-2.3,-1.6,19.5,58.19,-1.26,0.000000,0.000000,0,1,7.84,0.00
445276,-0.00,0.00,-0.05,-0.06,-0.12,-0.12,-2.3,-1.6,19.5,58.19,-1.29,0.000000,0.000000,0,1,7.85,0.00
445582,0.00,0.00,-0.07,-0.18,0.12,0.25,-2.3,-1.6,19.5,58.19,-1.31,0.000000,0.000000,0,1,7.85,0.00
445888,0.00,0.00,-0.07,0.12,0.00,0.18,-2.3,-1.6,19.5,58.20,-1.29,0.000000,0.000000,0,1,7.85,0.00
446194,0.00,0.00,-0.10,-0.06,0.18,-0.18,-2.3,-1.6,19.5,58.20,-1.21,0.000000,0.000000,0,1,7.85,0.00
446500,0.00,0.00,-0.07,-0.12,-0.06,0.25,-2.3,-1.6,19.5,58.20,-1.27,0.000000,0.000000,0,1,7.85,0.00
446806,0.00,-0.00,-0.07,0.00,0.12,-0.06,-2.3,-1.6,19.5,58.20,-1.36,0.000000,0.000000,0,1,7.85,0.00
447112,-0.00,0.02,-0.05,0.18,0.06,-0.12,-2.3,-1.6,19.5,58.21,-1.43,0.000000,0.000000,0,1,7.88,0.00
447418,-0.01,0.00,-0.07,0.06,-0.18,-0.12,-2.3,-1.6,19.5,58.21,-1.37,0.000000,0.000000,0,1,7.88,0.00
447724,0.00,0.00,-0.07,-0.12,0.25,-0.12,-2.3,-1.6,19.5,58.22,-1.28,0.000000,0.000000,0,1,7.88,0.00
448030,-0.01,0.00,-0.07,-0.06,-0.06,0.12,-2.3,-1.6,19.5,58.22,-1.31,0.000000,0.000000,0,1,7.88,0.00
448336,-0.01,0.00,-0.09,-0.06,-0.12,0.12,-2.3,-1.6,19.5,58.22,-1.36,0.000000,0.000000,0,1,7.85,0.00
448642,-0.00,0.00,-0.07,-0.06,0.00,-0.18,-2.3,-1.6,19.5,58.22,-1.34,0.000000,0.000000,0,1,7.85,0.00
448948,0.00,0.01,-0.07,0.12,-0.25,-0.06,-2.3,-1.6,19.5,58.23,-1.33,0.000000,0.000000,0,1,7.85,0.00
449254,-0.00,-0.01,-0.07,0.18,-0.06,0.12,-2.3,-1.6,19.5,58.23,-1.29,0.000000,0.000000,0,1,7.85,0.00
449560,-0.00,-0.00,-0.07,0.06,0.00,0.06,-2.3,-1.6,19.5,58.23,-1.33,0.000000,0.000000,0,1,7.85,0.00
449866,-0.00,0.00,-0.05,0.00,0.00,0.00,-2.3,-1.6,19.5,58.23,-1.33,0.000000,0.000000,0,1,7.85,0.00
450172,-0.00,-0.00,-0.05,-0.06,0.18,0.12,-2.3,-1.6,19.5,58.24,-1.31,0.000000,0.000000,0,1,7.84,0.00
450478,0.00,0.00,-0.07,-0.12,-0.12,0.06,-2.3,-1.6,19.5,58.24,-1.34,0.000000,0.000000,0,1,7.84,0.00
450784,0.00,0.00,-0.05,0.00,0.00,0.18,-2.3,-1.6,19.5,58.24,-1.38,0.000000,0.000000,0,1,7.84,0.00
451090,0.00,0.00,-0.07,0.06,0.00,-0.06,-2.3,-1.6,19.5,58.25,-1.27,0.000000,0.000000,0,1,7.85,0.00
451396,0.00,0.00,-0.05,-0.06,0.12,-0.18,-2.3,-1.6,19.5,58.24,-1.14,0.000000,0.000000,0,1,7.85,0.00
451702,0.00,-0.00,-0.07,0.00,0.31,-0.06,-2.3,-1.6,19.5,58.25,-1.20,0.000000,0.000000,0,1,7.85,0.00
452008,0.00,0.00,-0.09,0.06,0.00,0.00,-2.3,-1.6,19.5,58.25,-1.28,0.000000,0.000000,0,1,7.85,0.00
452314,0.00,0.00,-0.05,0.00,0.00,0.00,-2.3,-1.6,19.5,58.25,-1.25,0.000000,0.000000,0,1,7.85,0.00
452620,-0.00,0.00,-0.05,0.06,0.00,0.06,-2.3,-1.6,19.5,58.25,-1.22,0.000000,0.000000,0,1,7.85,0.00
452926,0.00,0.00,-0.07,0.06,0.12,-0.12,-2.3,-1.6,19.5,58.26,-1.18,0.000000,0.000000,0,1,7.85,0.00
453232,0.00,0.00,-0.07,0.00,0.00,-0.18,-2.3,-1.6,19.5,58.25,-1.09,0.000000,0.000000,0,1,7.85,0.00
453538,0.00,0.00,-0.07,0.00,-0.06,-0.18,-2.3,-1.6,19.5,58.26,-1.05,0.000000,0.000000,0,1,7.85,0.00
453844,0.00,0.00,-0.10,0.00,-0.06,0.12,-2.3,-1.6,19.5,58.26,-1.08,0.000000,0.000000,0,1,7.85,0.00
454150,-0.01,0.00,-0.07,-0.06,0.00,0.06,-2.3,-1.6,19.5,58.26,-1.11,0.000000,0.000000,0,1,7.87,0.00
454456,0.00,0.00,-0.11,0.00,0.06,0.00,-2.3,-1.6,19.5,58.26,-1.18,0.000000,0.000000,0,1,7.87,0.00
454762,0.00,0.00,-0.07,-0.06,0.00,0.00,-2.3,-1.6,19.5,58.26,-1.30,0.000000,0.000000,0,1,7.87,0.00
455068,0.00,0.00,-0.05,0.00,-0.06,0.06,-2.3,-1.6,19.5,58.27,-1.39,0.000000,0.000000,0,1,7.87,0.00
455374,0.00,0.00,-0.05,-0.12,-0.12,-0.12,-2.3,-1.6,19.5,58.27,-1.34,0.000000,0.000000,0,1,7.85,0.00
455680,0.00,0.00,-0.07,0.06,0.06,-0.06,-2.3,-1.6,19.5,58.27,-1.25,0.000000,0.000000,0,1,7.85,0.00
455986,0.00,0.01,-0.05,0.06,0.18,0.00,-2.3,-1.6,19.5,58.28,-1.19,0.000000,0.000000,0,1,7.85,0.00
456292,-0.00,0.00,-0.07,0.12,0.00,0.00,-2.3,-1.6,19.5,58.28,-1.14,0.000000,0.000000,0,1,7.85,0.00
456598,0.00,-0.00,-0.07,0.00,-0.18,0.12,-2.3,-1.6,19.5,58.28,-1.14,0.000000,0.000000,0,1,7.85,0.00
456904,0.00,0.01,-0.07,0.00,-0.18,0.18,-2.3,-1.6,19.5,58.28,-1.13,0.000000,0.000000,0,1,7.85,0.00
457210,0.00,0.00,-0.10,0.06,0.06,0.18,-2.3,-1.6,19.5,58.28,-1.14,0.000000,0.000000,0,1,7.85,0.00
457516,0.00,0.01,-0.05,0.06,-0.37,0.00,-2.3,-1.6,19.5,58.28,-1.18,0.000000,0.000000,0,1,7.85,0.00
457822,0.00,0.00,-0.07,-0.06,-0.18,0.06,-2.3,-1.6,19.5,58.29,-1.22,0.000000,0.000000,0,1,7.85,0.00
458128,0.00,0.00,-0.05,0.12,0.06,-0.06,-2.3,-1.6,19.5,58.29,-1.26,0.000000,0.000000,0,1,7.85,0.00
458434,-0.00,-0.00,-0.07,-0.06,0.00,0.06,-2.3,-1.6,19.5,58.29,-1.31,0.000000,0.000000,0,1,7.84,0.00
458740,-0.00,0.01,-0.07,0.06,-0.25,0.06,-2.3,-1.6,19.5,58.30,-1.33,0.000000,0.000000,0,1,7.84,0.00
459046,-0.01,0.00,-0.07,0.12,-0.12,-0.12,-2.3,-1.6,19.5,58.30,-1.34,0.000000,0.000000,0,1,7.84,0.00
459352,0.00,-0.01,-0.05,0.06,0.12,-0.12,-2.3,-1.6,19.5,58.30,-1.31,0.000000,0.000000,0,1,7.84,0.00
459658,0.00,0.00,-0.09,0.00,0.12,0.12,-2.3,-1.6,19.5,58.30,-1.29,0.000000,0.000000,0,1,7.84,0.00
459964,0.00,0.00,-0.07,0.00,0.00,0.18,-2.3,-1.6,19.5,58.31,-1.29,0.000000,0.000000,0,1,7.84,0.00
460270,0.00,0.00,-0.07,0.00,0.12,-0.31,-2.3,-1.6,19.5,58.31,-1.30,0.000000,0.000000,0,1,7.84,0.00
460576,0.00,0.00,-0.07,-0.06,-0.18,0.31,-2.3,-1.6,19.5,58.31,-1.31,0.000000,0.000000,0,1,7.84,0.00
460882,0.00,0.00,-0.09,-0.12,0.06,0.06,-2.3,-1.6,19.5,58.32,-1.31,0.000000,0.000000,0,1,7.84,0.00
461188,0.00,0.00,-0.05,0.00,0.12,0.12,-2.3,-1.6,19.5,58.32,-1.32,0.000000,0.000000,0,1,7.84,0.00
461494,-0.01,-0.00,-0.07,-0.06,0.06,-0.06,-2.3,-1.6,19.5,58.32,-1.33,0.000000,0.000000,0,1,7.84,0.00
461800,0.00,0.00,-0.05,0.06,0.18,0.00,-2.3,-1.6,19.5,58.33,-1.33,0.000000,0.000000,0,1,7.84,0.00
462106,-0.00,-0.00,-0.05,0.00,0.18,0.12,-2.3,-1.6,19.5,58.33,-1.33,0.000000,0.000000,0,1,7.84,0.00
462412,-0.02,0.00,-0.07,0.00,0.25,0.12,-2.3,-1.6,19.5,58.33,-1.34,0.000000,0.000000,0,1,7.88,0.00
462718,0.00,0.00,-0.09,0.12,-0.06,0.12,-2.3,-1.6,19.5,58.34,-1.34,0.000000,0.000000,0,1,7.88,0.00
463024,0.00,0.00,-0.05,-0.06,-0.25,0.00,-2.3,-1.6,19.5,58.34,-1.32,0.000000,0.000000,0,1,7.88,0.00
463330,0.00,0.00,-0.05,-0.12,0.12,-0.25,-2.3,-1.6,19.5,58.34,-1.31,0.000000,0.000000,0,1,7.84,0.00
463636,0.00,0.00,-0.05,-0.12,-0.18,0.12,-2.3,-1.6,19.5,58.35,-1.31,0.000000,0.000000,0,1,7.84,0.00
463942,-0.00,0.00,-0.07,0.06,0.00,-0.06,-2.3,-1.6,19.5,58.35,-1.32,0.000000,0.000000,0,1,7.84,0.00
464248,-0.00,0.00,-0.05,0.00,-0.06,0.00,-2.3,-1.6,19.5,58.35,-1.32,0.000000,0.000000,0,1,7.85,0.00
464554,0.00,0.01,-0.05,0.06,-0.12,-0.06,-2.3,-1.6,19.5,58.36,-1.30,0.000000,0.000000,0,1,7.85,0.00
464860,-0.01,0.00,-0.09,0.12,0.06,-0.06,-2.3,-1.6,19.5,58.36,-1.29,0.000000,0.000000,0,1,7.85,0.00
465166,-0.00,0.00,-0.05,0.12,-0.06,-0.18,-2.3,-1.6,19.5,58.36,-1.27,0.000000,0.000000,0,1,7.85,0.00
465472,-0.01,0.01,-0.05,-0.18,0.00,-0.06,-2.3,-1.6,19.5,58.37,-1.28,0.000000,0.000000,0,1,7.84,0.00
465778,0.00,-0.00,-0.10,-0.12,0.06,0.25,-2.3,-1.6,19.5,58.37,-1.30,0.000000,0.000000,0,1,7.84,0.00
466084,0.00,0.00,-0.07,0.00,0.06,0.00,-2.3,-1.6,19.5,58.37,-1.29,0.000000,0.000000,0,1,7.84,0.00
466390,0.00,0.00,-0.07,0.00,-0.12,-0.06,-2.3,-1.6,19.5,58.37,-1.26,0.000000,0.000000,0,1,7.85,0.00
466696,-0.00,0.01,-0.07,-0.06,0.06,-0.25,-2.3,-1.6,19.5,58.38,-1.31,0.000000,0.000000,0,1,7.85,0.00
467002,0.00,0.00,-0.07,0.00,0.00,0.25,-2.3,-1.6,19.5,58.38,-1.38,0.000000,0.000000,0,1,7.85,0.00
467308,0.00,0.00,-0.05,0.00,0.12,0.00,-2.3,-1.6,19.5,58.39,-1.40,0.000000,0.000000,0,1,7.84,0.00
467614,-0.01,0.00,-0.09,-0.06,-0.06,-0.18,-2.3,-1.6,19.5,58.39,-1.36,0.000000,0.000000,0,1,7.84,0.00
467920,0.00,0.00,-0.07,0.06,-0.12,-0.06,-2.3,-1.6,19.5,58.39,-1.35,0.000000,0.000000,0,1,7.84,0.00
468226,0.00,0.00,-0.07,0.06,-0.06,0.12,-2.3,-1.6,19.5,58.40,-1.32,0.000000,0.000000,0,1,7.84,0.00
468838,0.00,0.00,-0.07,0.00,-0.12,0.00,-2.3,-1.6,19.5,58.41,-1.46,0.000000,0.000000,0,1,7.84,0.00
469144,0.00,0.01,-0.07,-0.06,0.06,-0.18,-2.3,-1.6,19.5,58.41,-1.38,0.000000,0.000000,0,1,7.84,0.00
469450,0.00,0.00,-0.09,0.12,0.25,-0.06,-2.3,-1.6,19.5,58.41,-1.31,0.000000,0.000000,0,1,7.85,0.00
469756,0.00,0.00,-0.05,0.00,-0.12,0.06,-2.3,-1.6,19.5,58.41,-1.30,0.000000,0.000000,0,1,7.85,0.00
470062,-0.00,0.01,-0.07,-0.06,-0.12,-0.06,-2.3,-1.6,19.5,58.42,-1.31,0.000000,0.000000,0,1,7.85,0.00
470368,-0.00,0.00,-0.07,0.00,-0.06,0.12,-2.3,-1.6,19.5,58.42,-1.30,0.000000,0.000000,0,1,7.84,0.00
470674,-0.00,0.00,-0.09,0.00,0.00,-0.12,-2.3,-1.6,19.5,58.42,-1.31,0.000000,0.000000,0,1,7.84,0.00
470980,0.00,0.00,-0.05,0.06,-0.06,0.12,-2.3,-1.6,19.5,58.43,-1.35,0.000000,0.000000,0,1,7.84,0.00
471286,0.00,0.00,-0.07,-0.06,0.25,0.12,-2.3,-1.6,19.5,58.43,-1.35,0.000000,0.000000,0,1,7.84,0.00
471592,0.00,0.01,-0.07,0.00,0.12,-0.25,-2.3,-1.6,19.5,58.43,-1.32,0.000000,0.000000,0,1,7.84,0.00
471898,-0.00,0.00,-0.09,0.12,0.06,-0.18,-2.3,-1.6,19.5,58.44,-1.35,0.000000,0.000000,0,1,7.84,0.00
472204,0.00,0.00,-0.07,-0.06,0.06,0.00,-2.3,-1.6,19.5,58.44,-1.38,0.000000,0.000000,0,1,7.84,0.00
472510,0.00,0.00,-0.05,0.06,-0.12,0.00,-2.3,-1.6,19.5,58.44,-1.32,0.000000,0.000000,0,1,7.84,0.00
472816,0.00,0.00,-0.07,0.12,0.12,0.00,-2.3,-1.6,19.5,58.45,-1.25,0.000000,0.000000,0,1,7.84,0.00
473122,0.00,0.00,-0.07,0.00,-0.06,-0.12,-2.3,-1.6,19.5,58.45,-1.24,0.000000,0.000000,0,1,7.84,0.00
473428,-0.01,0.00,-0.09,0.06,0.06,0.31,-2.3,-1.6,19.5,58.45,-1.23,0.000000,0.000000,0,1,7.83,0.00
473734,0.00,0.00,-0.05,0.00,0.00,-0.18,-2.3,-1.6,19.5,58.46,-1.21,0.000000,0.000000,0,1,7.83,0.00
474040,0.00,0.01,-0.07,-0.18,-0.06,-0.12,-2.3,-1.6,19.5,58.46,-1.23,0.000000,0.000000,0,1,7.83,0.00
474346,0.00,0.00,-0.05,0.00,0.18,-0.06,-2.3,-1.6,19.5,58.46,-1.22,0.000000,0.000000,0,1,7.83,0.00
474652,-0.01,0.00,-0.03,0.00,-0.06,0.12,-2.3,-1.6,19.5,58.46,-1.19,0.000000,0.000000,0,1,7.83,0.00
474958,-0.00,0.00,-0.05,0.00,-0.06,0.12,-2.3,-1.6,19.5,58.46,-1.20,0.000000,0.000000,0,1,7.83,0.00
475264,0.00,0.00,-0.07,0.12,0.25,-0.06,-2.3,-1.6,19.5,58.47,-1.19,0.000000,0.000000,0,1,7.83,0.00
475570,0.00,0.00,-0.05,0.06,0.06,-0.06,-2.3,-1.6,19.5,58.47,-1.17,0.000000,0.000000,0,1,7.84,0.00
475876,0.00,0.02,-0.07,0.18,0.00,0.25,-2.3,-1.6,19.5,58.47,-1.20,0.000000,0.000000,0,1,7.84,0.00
476182,-0.00,0.00,-0.07,0.06,0.12,0.12,-2.3,-1.6,19.5,58.47,-1.20,0.000000,0.000000,0,1,7.84,0.00
476488,0.00,0.00,-0.07,0.06,0.25,0.12,-2.3,-1.6,19.5,58.47,-1.24,0.000000,0.000000,0,1,7.84,0.00
476794,0.00,0.00,-0.05,-0.12,-0.12,0.12,-2.3,-1.6,19.5,58.48,-1.24,0.000000,0.000000,0,1,7.84,0.00
477100,0.00,0.00,-0.07,0.12,0.06,-0.12,-2.3,-1.6,19.5,58.48,-1.25,0.000000,0.000000,0,1,7.84,0.00
477406,0.00,-0.00,-0.05,-0.06,-0.31,0.12,-2.3,-1.6,19.5,58.49,-1.29,0.000000,0.000000,0,1,7.86,0.00
477712,-0.00,0.00,-0.07,-0.06,0.18,0.12,-2.3,-1.6,19.5,58.49,-1.29,0.000000,0.000000,0,1,7.86,0.00
478018,0.00,0.02,-0.07,-0.06,0.06,-0.06,-2.3,-1.6,19.5,58.49,-1.33,0.000000,0.000000,0,1,7.86,0.00
478324,0.00,0.00,-0.02,-0.06,-0.12,0.06,-2.3,-1.6,19.5,58.50,-1.34,0.000000,0.000000,0,1,7.86,0.00
478630,-0.00,0.00,-0.07,0.18,0.00,0.00,-2.3,-1.6,19.5,58.50,-1.32,0.000000,0.000000,0,1,7.84,0.00
478936,0.00,0.00,-0.05,0.06,-0.25,-0.18,-2.3,-1.6,19.5,58.50,-1.37,0.000000,0.000000,0,1,7.84,0.00
479242,-0.00,0.01,-0.05,-0.06,-0.06,0.06,-2.3,-1.6,19.5,58.51,-1.35,0.000000,0.000000,0,1,7.84,0.00
479548,-0.00,0.00,-0.07,0.06,0.00,0.06,-2.3,-1.6,19.5,58.51,-1.27,0.000000,0.000000,0,1,7.84,0.00
479854,-0.00,0.00,-0.05,0.12,-0.06,0.00,-2.3,-1.6,19.5,58.51,-1.23,0.000000,0.000000,0,1,7.84,0.00
480160,-0.01,0.00,-0.07,-0.06,-0.06,0.18,-2.3,-1.6,19.5,58.52,-1.19,0.000000,0.000000,0,1,7.84,0.00
480466,0.00,-0.00,-0.05,0.18,0.06,-0.06,-2.3,-1.6,19.5,58.52,-1.19,0.000000,0.000000,0,1,7.85,0.00
480772,0.00,0.00,-0.09,0.00,0.06,-0.06,-2.3,-1.6,19.5,58.52,-1.23,0.000000,0.000000,0,1,7.85,0.00
481078,0.00,0.00,-0.09,0.12,0.00,0.12,-2.3,-1.6,19.5,58.52,-1.30,0.000000,0.000000,0,1,7.85,0.00
481384,0.00,-0.00,-0.05,-0.12,-0.25,0.06,-2.3,-1.6,19.5,58.53,-1.38,0.000000,0.000000,0,1,7.84,0.00
481690,-0.00,0.00,-0.07,0.06,0.00,-0.31,-2.3,-1.6,19.5,58.53,-1.38,0.000000,0.000000,0,1,7.84,0.00
481996,0.00,0.00,-0.07,0.00,0.12,-0.06,-2.3,-1.6,19.5,58.54,-1.36,0.000000,0.000000,0,1,7.84,0.00
482302,-0.01,-0.00,-0.07,0.00,-0.12,0.00,-2.3,-1.6,19.5,58.54,-1.32,0.000000,0.000000,0,1,7.84,0.00
482608,0.00,0.00,-0.07,0.00,0.18,-0.06,-2.3,-1.6,19.5,58.54,-1.27,0.000000,0.000000,0,1,7.84,0.00
482914,0.00,0.01,-0.07,0.06,0.06,0.18,-2.3,-1.6,19.5,58.54,-1.23,0.000000,0.000000,0,1,7.84,0.00
483220,0.00,0.00,-0.05,-0.12,-0.18,0.06,-2.3,-1.6,19.5,58.55,-1.24,0.000000,0.000000,0,1,7.84,0.00
483526,0.00,0.00,-0.11,-0.12,0.12,-0.06,-2.3,-1.6,19.5,58.55,-1.27,0.000000,0.000000,0,1,7.84,0.00
483832,0.00,0.00,-0.07,-0.12,-0.06,0.06,-2.3,-1.6,19.5,58.55,-1.28,0.000000,0.000000,0,1,7.84,0.00
484138,0.00,0.00,-0.07,0.06,0.18,0.00,-2.3,-1.6,19.5,58.56,-1.20,0.000000,0.000000,0,1,7.84,0.00
484444,0.00,0.00,-0.07,0.00,-0.06,0.00,-2.3,-1.6,19.5,58.56,-1.10,0.000000,0.000000,0,1,7.84,0.00
484750,-0.01,0.00,-0.07,-0.18,-0.06,-0.06,-2.3,-1.6,19.5,58.56,-1.18,0.000000,0.000000,0,1,7.84,0.00
485056,-0.01,0.01,-0.05,-0.06,0.12,0.00,-2.3,-1.6,19.5,58.56,-1.22,0.000000,0.000000,0,1,7.84,0.00
485362,0.00,0.00,-0.07,-0.06,0.06,0.25,-2.3,-1.6,19.5,58.56,-1.24,0.000000,0.000000,0,1,7.84,0.00
485668,0.00,0.00,-0.03,0.00,-0.18,0.12,-2.3,-1.6,19.5,58.57,-1.27,0.000000,0.000000,0,1,7.84,0.00
485974,0.00,0.00,-0.09,0.00,-0.12,0.00,-2.3,-1.6,19.5,58.57,-1.27,0.000000,0.000000,0,1,7.84,0.00
486280,-0.00,-0.00,-0.02,0.06,0.00,-0.18,-2.3,-1.6,19.5,58.58,-1.24,0.000000,0.000000,0,1,7.84,0.00
486586,-0.00,0.00,-0.10,0.06,0.18,0.12,-2.3,-1.6,19.5,58.58,-1.23,0.000000,0.000000,0,1,7.84,0.00
486892,0.00,0.00,-0.05,0.06,-0.06,0.00,-2.3,-1.6,19.5,58.58,-1.19,0.000000,0.000000,0,1,7.84,0.00
487198,0.00,0.00,-0.07,0.12,-0.12,0.06,-2.3,-1.6,19.5,58.58,-1.15,0.000000,0.000000,0,1,7.84,0.00
487504,-0.00,0.01,-0.05,0.06,0.00,-0.12,-2.3,-1.6,19.5,58.59,-1.13,0.000000,0.000000,0,1,7.84,0.00
487810,0.00,0.00,-0.07,0.00,0.06,0.06,-2.3,-1.6,19.5,58.59,-1.10,0.000000,0.000000,0,1,7.84,0.00
488116,0.00,0.00,-0.07,-0.06,0.18,-0.31,-2.3,-1.6,19.5,58.59,-1.09,0.000000,0.000000,0,1,7.84,0.00
488422,0.00,0.01,-0.05,0.18,0.00,-0.06,-2.3,-1.6,19.5,58.59,-1.11,0.000000,0.000000,0,1,7.84,0.00
488728,-0.00,0.00,-0.05,0.12,0.06,0.12,-2.3,-1.6,19.5,58.59,-1.13,0.000000,0.000000,0,1,7.84,0.00
489034,-0.00,0.00,-0.05,0.00,0.00,0.06,-2.3,-1.6,19.5,58.59,-1.16,0.000000,0.000000,0,1,7.84,0.00
489340,0.00,0.00,-0.09,-0.06,-0.06,0.06,-2.3,-1.6,19.5,58.60,-1.19,0.000000,0.000000,0,1,7.84,0.00
489646,0.00,0.00,-0.05,-0.12,0.06,0.00,-2.3,-1.6,19.5,58.60,-1.22,0.000000,0.000000,0,1,7.83,0.00
489952,-0.00,0.00,-0.07,0.06,0.00,-0.06,-2.3,-1.6,19.5,58.61,-1.20,0.000000,0.000000,0,1,7.83,0.00
490258,0.00,0.00,-0.05,0.12,0.06,0.12,-2.3,-1.6,19.5,58.61,-1.19,0.000000,0.000000,0,1,7.83,0.00
490564,-0.01,0.00,-0.05,-0.06,0.06,0.25,-2.3,-1.6,19.5,58.61,-1.19,0.000000,0.000000,0,1,7.84,0.00
490870,-0.00,-0.00,-0.05,0.06,0.06,-0.12,-2.3,-1.6,19.5,58.61,-1.19,0.000000,0.000000,0,1,7.84,0.00
491176,-0.00,-0.01,-0.05,0.00,-0.06,-0.06,-2.3,-1.6,19.5,58.62,-1.20,0.000000,0.000000,0,1,7.84,0.00
491482,0.00,-0.00,-0.09,-0.06,0.06,0.00,-2.3,-1.6,19.5,58.62,-1.20,0.000000,0.000000,0,1,7.84,0.00
491788,0.00,0.00,-0.07,0.06,0.25,-0.12,-2.3,-1.6,19.5,58.62,-1.21,0.000000,0.000000,0,1,7.84,0.00
492094,-0.02,0.00,-0.05,0.00,-0.12,-0.06,-2.3,-1.6,19.5,58.63,-1.21,0.000000,0.000000,0,1,7.84,0.00
492400,0.00,-0.00,-0.07,0.06,-0.12,0.12,-2.3,-1.6,19.5,58.63,-1.20,0.000000,0.000000,0,1,7.84,0.00
492706,-0.00,-0.00,-0.07,0.12,0.06,-0.12,-2.3,-1.6,19.5,58.63,-1.19,0.000000,0.000000,0,1,7.84,0.00
493012,0.00,0.00,-0.07,0.06,-0.06,-0.06,-2.3,-1.6,19.5,58.63,-1.20,0.000000,0.000000,0,1,7.84,0.00
493318,-0.00,0.00,-0.09,0.00,-0.12,0.06,-2.3,-1.6,19.5,58.64,-1.20,0.000000,0.000000,0,1,7.84,0.00
493624,-0.01,-0.00,-0.01,0.12,-0.12,-0.18,-2.3,-1.6,19.5,58.64,-1.19,0.000000,0.000000,0,1,7.83,0.00
493930,-0.00,0.00,-0.07,0.12,-0.06,0.00,-2.3,-1.6,19.5,58.65,-1.18,0.000000,0.000000,0,1,7.83,0.00
494236,0.00,0.00,-0.09,0.00,0.18,-0.18,-2.3,-1.6,19.5,58.65,-1.16,0.000000,0.000000,0,1,7.83,0.00
494542,0.00,0.00,-0.07,0.12,0.00,0.12,-2.3,-1.6,19.5,58.65,-1.15,0.000000,0.000000,0,1,7.83,0.00
494848,0.00,0.00,-0.07,0.00,0.00,0.12,-2.3,-1.6,19.5,58.65,-1.15,0.000000,0.000000,0,1,7.83,0.00
495154,0.00,0.00,-0.05,-0.06,-0.06,0.00,-2.3,-1.6,19.5,58.66,-1.17,0.000000,0.000000,0,1,7.83,0.00
495460,0.00,0.00,-0.05,0.12,0.00,0.00,-2.3,-1.6,19.5,58.66,-1.17,0.000000,0.000000,0,1,7.83,0.00
495766,0.00,0.00,-0.05,-0.06,0.00,-0.12,-2.3,-1.6,19.5,58.66,-1.16,0.000000,0.000000,0,1,7.84,0.00
496072,-0.00,0.00,-0.05,0.12,-0.12,-0.06,-2.3,-1.6,19.5,58.67,-1.16,0.000000,0.000000,0,1,7.84,0.00
496378,0.00,0.00,-0.07,0.00,0.06,-0.18,-2.3,-1.6,19.5,58.67,-1.16,0.000000,0.000000,0,1,7.84,0.00
496684,0.00,0.00,-0.07,0.06,-0.12,-0.06,-2.3,-1.6,19.5,58.67,-1.17,0.000000,0.000000,0,1,7.84,0.00
496990,0.00,0.00,-0.07,0.06,0.00,0.06,-2.3,-1.6,19.5,58.67,-1.18,0.000000,0.000000,0,1,7.84,0.00
497296,0.00,0.00,-0.07,0.06,-0.12,-0.18,-2.3,-1.6,19.5,58.68,-1.19,0.000000,0.000000,0,1,7.84,0.00
497602,-0.01,-0.00,-0.07,0.12,-0.06,-0.18,-2.3,-1.6,19.5,58.68,-1.19,0.000000,0.000000,0,1,7.84,0.00
497908,0.00,0.00,-0.05,-0.06,0.12,0.06,-2.3,-1.6,19.5,58.69,-1.18,0.000000,0.000000,0,1,7.84,0.00
498214,-0.00,0.00,-0.05,0.06,0.06,-0.06,-2.3,-1.6,19.5,58.69,-1.18,0.000000,0.000000,0,1,7.84,0.00
498520,0.00,-0.00,-0.07,0.06,0.12,0.06,-2.3,-1.6,19.5,58.69,-1.16,0.000000,0.000000,0,1,7.84,0.00
