tx_timestamp_ms,accel_x,accel_y,accel_z,gyro_x,gyro_y,gyro_z,roll,pitch,yaw,temperature,altitude,latitude,longitude,satellites,flags_raw,battery_voltage,gnss_alt
210126,-0.57,0.23,-0.88,5.75,-6.37,26.43,5.4,-6.7,154.0,36.98,1.73,43.222202,-0.051783,12,1,8.12,441.50
210430,-0.88,0.00,0.30,-9.93,0.68,-24.62,4.5,-6.8,156.8,36.99,1.73,43.222202,-0.051783,12,1,8.12,441.50
210736,-0.30,-0.15,0.07,-0.81,-7.87,-13.81,2.8,-6.7,163.0,37.00,1.67,43.222202,-0.051783,12,1,8.12,441.50
211042,-0.15,-0.22,-0.01,-4.75,-6.18,-3.50,3.1,-6.6,165.6,37.00,1.74,43.222202,-0.051783,12,1,8.12,441.50
211348,-0.27,-0.00,-0.15,-0.75,-2.37,-1.93,3.9,-6.6,167.1,37.01,1.76,43.222202,-0.051784,12,1,8.12,441.50
211654,-0.11,0.00,-0.13,-0.06,1.12,1.56,3.6,-6.2,167.2,37.01,1.78,43.222202,-0.051784,12,1,8.12,441.50
211960,-0.23,-0.13,0.03,-1.18,2.62,-0.18,2.6,-5.7,167.0,37.02,1.79,43.222202,-0.051784,12,1,8.12,441.50
212266,-0.18,-0.07,-0.05,-0.75,-2.12,-0.43,2.9,-5.8,166.6,37.03,1.81,43.222202,-0.051785,12,1,8.11,441.50
212572,-0.13,0.05,-0.11,-0.31,-1.25,-0.50,2.9,-5.5,166.6,37.03,1.80,43.222202,-0.051785,12,1,8.11,441.50
212878,-0.07,0.03,-0.17,1.37,-1.12,-0.06,3.0,-5.3,166.6,37.04,1.74,43.222202,-0.051785,12,1,8.11,441.50
213184,-0.05,0.01,-0.15,-0.37,-0.18,-0.56,3.1,-5.1,166.7,37.05,1.70,43.222202,-0.051785,12,1,8.11,441.50
213490,0.00,0.03,-0.11,-0.93,-0.43,-2.25,3.5,-5.0,167.3,37.05,1.67,43.222202,-0.051785,12,1,8.11,441.50
213796,-0.13,-0.35,-0.10,-5.93,-4.12,-8.62,3.6,-4.5,168.5,37.06,1.67,43.222202,-0.051785,12,1,8.11,441.50
214102,-0.28,-0.76,0.17,11.68,35.62,-55.56,-8.0,-4.8,176.5,37.07,1.63,43.222202,-0.051785,12,1,8.11,441.50
214408,-0.25,0.01,0.35,6.31,11.68,-32.43,-13.7,-3.5,188.9,37.07,1.59,43.222202,-0.051784,12,1,8.11,441.50
214714,0.27,-1.71,0.00,40.00,-6.12,-31.18,-10.3,-6.8,198.1,37.08,1.59,43.222202,-0.051784,12,1,8.11,441.50
215020,0.40,-0.31,-0.40,27.31,5.12,-45.00,-4.6,-12.5,211.2,37.09,1.67,43.222202,-0.051784,12,1,8.11,441.50
215326,1.26,2.01,-0.66,97.50,56.25,-44.43,-8.4,-17.0,231.1,37.08,2.68,43.222202,-0.051783,12,1,8.11,441.50
215632,0.33,1.79,-1.14,-36.62,-12.37,-45.93,-6.8,-14.2,252.5,37.09,2.25,43.222202,-0.051783,12,1,8.11,441.50
215938,1.15,0.97,0.05,-22.56,-12.31,-3.37,-8.3,-5.7,256.3,37.10,1.62,43.222202,-0.051783,12,1,8.11,441.50
216550,0.25,0.93,0.07,3.56,6.00,79.12,-6.5,-5.6,235.9,37.11,1.31,43.222209,-0.051785,12,1,8.11,441.39
216856,-1.67,-1.21,1.63,-11.06,14.62,72.00,-0.8,-3.5,209.6,37.12,1.16,43.222209,-0.051785,12,1,8.11,441.20
217162,0.20,0.44,0.46,-17.81,-11.62,0.18,1.9,-3.0,198.8,37.13,1.82,43.222209,-0.051798,12,1,8.11,441.29
217468,-1.04,1.10,-1.00,-7.75,15.81,18.37,-3.5,0.6,195.1,37.11,2.59,43.222209,-0.051798,12,1,8.11,441.20
218080,-0.35,0.44,-0.86,-5.81,3.43,25.93,-1.6,-3.6,175.1,37.11,2.85,43.222209,-0.051798,12,1,8.11,441.20
218692,0.86,-1.77,-1.25,8.25,-1.75,-37.12,-5.5,-9.0,186.8,37.10,2.30,43.222209,-0.051807,12,1,8.12,441.29
218998,-0.11,-1.59,0.40,39.25,-19.43,-33.25,-1.5,-14.2,198.4,37.11,1.76,43.222209,-0.051807,12,1,8.12,441.29
219304,-1.24,-1.25,1.51,-23.06,16.56,15.31,-0.9,-14.1,193.5,37.11,2.06,43.222202,-0.051817,12,1,8.12,441.29
219610,1.09,0.11,-0.05,-1.62,23.87,21.87,-2.0,-13.4,189.8,37.11,2.95,43.222202,-0.051817,12,1,8.12,441.29
219916,-0.55,0.45,0.75,-1.25,-17.81,65.50,1.8,-12.4,175.8,37.09,3.46,43.222202,-0.051817,12,1,8.12,441.29
220222,-1.12,-0.33,-0.86,-8.50,39.43,129.43,-0.6,-13.6,147.5,37.08,3.51,43.222202,-0.051827,12,1,8.12,441.39
220528,-3.00,1.49,1.63,-1.75,37.25,130.87,2.6,-11.5,104.3,37.08,2.92,43.222202,-0.051827,12,1,8.12,441.39
220834,-0.70,-1.04,-0.28,-5.18,8.31,84.62,0.5,-8.6,69.3,37.09,1.86,43.222202,-0.051827,12,1,8.12,441.39
221446,2.77,1.79,2.51,7.12,10.93,-12.12,-9.2,-3.6,56.4,37.12,1.52,43.222202,-0.051830,12,1,8.12,441.39
222058,0.27,1.26,-1.71,-7.87,-10.18,-45.12,-8.5,1.4,53.1,37.13,1.35,43.222202,-0.051830,12,1,8.12,441.39
222364,0.57,-0.11,0.70,38.25,5.18,-54.25,-8.2,-0.7,74.6,37.14,1.49,43.222209,-0.051834,12,1,8.11,441.50
222670,0.22,0.07,0.67,-14.93,4.12,-1.37,-10.2,0.4,81.6,37.14,1.60,43.222209,-0.051834,12,1,8.11,441.39
222976,0.67,-0.95,0.45,16.00,5.75,-1.43,-7.6,3.2,82.1,37.14,1.75,43.222209,-0.051834,12,1,8.11,441.50
223282,1.20,-0.37,-0.11,11.37,12.18,-13.43,-7.5,-1.0,85.4,37.15,1.86,43.222209,-0.051835,12,1,8.11,441.50
223588,0.79,-2.00,0.75,-12.50,36.37,7.12,-11.0,0.6,84.1,37.15,1.88,43.222209,-0.051835,12,1,8.11,441.50
223894,-3.54,0.77,0.83,-11.12,-45.50,23.12,-7.1,-0.0,76.3,37.16,1.89,43.222209,-0.051835,12,1,8.11,441.50
224200,1.50,1.82,-1.58,-2.93,20.81,6.43,-10.5,1.1,67.7,37.17,1.87,43.222209,-0.051835,12,1,8.11,441.39
224812,-1.09,0.83,-0.15,-12.00,7.50,7.56,-6.0,5.8,69.1,37.18,1.55,43.222209,-0.051838,12,1,8.11,441.50
225118,0.28,0.15,0.68,-5.06,-7.75,46.43,-5.1,6.2,60.6,37.19,1.48,43.222209,-0.051838,12,1,8.11,441.60
225424,-0.56,0.95,-1.02,11.18,7.87,26.87,-4.1,2.6,45.0,37.20,1.40,43.222202,-0.051836,12,1,8.12,441.60
225730,1.29,1.35,0.03,-20.56,-15.25,-2.06,-4.3,10.1,38.9,37.21,1.45,43.222202,-0.051836,12,1,8.12,441.50
226036,-1.16,-1.00,2.95,-7.81,-23.75,-53.68,-5.2,8.6,43.8,37.21,1.28,43.222202,-0.051836,12,1,8.12,441.50
226342,0.83,0.01,-2.31,21.18,22.62,-37.43,-5.2,7.8,54.2,37.22,1.36,43.222202,-0.051829,12,1,8.11,441.39
226648,1.38,0.55,0.00,14.37,-19.50,17.37,-4.6,4.7,59.5,37.23,1.31,43.222202,-0.051829,12,1,8.11,441.50
227260,-0.07,0.72,-0.12,-9.93,-22.68,-26.43,-2.0,5.3,58.0,37.25,1.30,43.222202,-0.051819,12,1,8.11,441.50
227566,-0.01,1.00,-0.34,-1.37,9.25,-72.87,0.7,5.8,71.4,37.25,1.39,43.222202,-0.051819,12,1,8.11,441.50
227872,2.03,-1.15,-2.02,-27.12,-5.50,-19.93,-1.1,9.6,87.0,37.26,1.35,43.222202,-0.051819,12,1,8.11,441.60
228178,0.70,-1.00,0.27,-1.25,-0.75,-14.31,0.0,10.8,93.6,37.27,1.31,43.222202,-0.051819,12,1,8.11,441.60
228484,0.50,-0.63,0.45,11.43,14.06,7.56,-1.5,7.5,94.3,37.28,1.31,43.222202,-0.051810,12,1,8.12,441.60
228790,0.11,-0.56,-0.17,13.62,5.43,17.31,-2.5,2.9,89.8,37.29,1.33,43.222202,-0.051810,12,1,8.12,441.50
229402,-0.20,0.20,-0.17,5.68,-0.75,-19.93,-6.8,0.0,89.1,37.31,1.35,43.222202,-0.051809,12,1,8.12,441.50
229708,0.05,0.51,-1.36,-1.93,-13.12,-23.12,-1.8,2.5,96.1,37.32,1.36,43.222202,-0.051809,12,1,8.12,441.50
230014,-0.19,0.07,-0.10,1.06,3.12,-24.25,-1.7,2.7,102.8,37.32,1.44,43.222202,-0.051809,12,1,8.12,441.39
230320,0.00,-0.07,0.54,-0.75,0.37,-6.81,-3.0,2.6,106.1,37.33,1.35,43.222202,-0.051809,12,1,8.11,441.29
230932,0.03,0.00,0.27,-7.62,-4.25,2.62,-3.5,4.0,108.7,37.35,1.37,43.222202,-0.051809,12,1,8.11,441.10
231238,-0.07,0.25,-0.22,0.81,-1.62,-6.50,-2.0,3.5,110.1,37.36,1.36,43.222202,-0.051809,12,1,8.11,441.10
231544,0.02,0.09,-0.45,3.37,-0.81,-4.00,-1.1,2.8,111.0,37.37,1.43,43.222202,-0.051808,12,1,8.11,441.10
231850,-0.00,0.11,-0.28,1.12,1.75,2.12,-1.0,2.6,110.9,37.38,1.41,43.222202,-0.051808,12,1,8.11,441.10
232156,-0.03,0.00,0.03,0.56,3.37,0.62,-1.1,2.6,110.8,37.38,1.52,43.222202,-0.051808,12,1,8.11,441.10
232462,0.17,0.17,0.00,1.43,-0.62,-1.06,-1.3,2.3,111.0,37.39,1.50,43.222202,-0.051807,12,1,8.12,441.20
232768,0.22,0.07,0.17,0.56,-0.81,0.18,-1.2,2.5,111.1,37.40,1.49,43.222202,-0.051807,12,1,8.12,441.10
233380,-0.01,0.05,-0.25,1.12,0.93,0.62,-1.5,2.5,110.5,37.42,1.50,43.222190,-0.051807,12,1,8.12,441.10
233686,-0.09,0.05,-0.13,2.18,1.81,-5.18,-1.2,2.6,110.6,37.42,1.47,43.222190,-0.051807,12,1,8.12,441.00
233992,-0.09,0.00,0.15,-2.06,0.68,-2.62,-1.2,2.7,111.3,37.43,1.42,43.222190,-0.051807,12,1,8.12,441.00
234298,0.07,0.02,-0.01,-1.31,-1.93,-1.43,-1.2,2.7,112.1,37.44,1.39,43.222190,-0.051807,12,1,8.12,441.00
234910,0.12,0.03,-0.00,1.68,1.12,-0.93,-1.3,2.6,112.8,37.46,1.37,43.222190,-0.051806,12,1,8.12,440.89
235216,0.02,0.01,0.07,0.31,0.06,-0.87,-1.3,2.4,112.7,37.46,1.34,43.222190,-0.051806,12,1,8.12,440.89
235522,-0.07,-0.05,-0.02,-0.87,1.43,-0.25,-1.3,2.5,112.6,37.47,1.30,43.222190,-0.051805,12,1,8.11,440.79
235828,0.05,0.01,-0.07,-1.06,-0.87,-2.12,-1.4,2.5,112.8,37.48,1.32,43.222190,-0.051805,12,1,8.11,440.79
236134,0.05,-0.03,0.13,0.00,-1.62,-2.75,-1.3,2.5,113.5,37.49,1.30,43.222190,-0.051805,12,1,8.11,440.79
236440,0.01,0.01,-0.07,0.00,1.18,1.37,-1.2,2.4,114.0,37.50,1.26,43.222190,-0.051805,12,1,8.12,440.79
236746,0.11,-0.02,-0.20,0.43,-1.43,-0.37,-1.1,2.3,113.8,37.51,1.26,43.222190,-0.051805,12,1,8.12,440.79
237358,0.03,-0.19,-0.01,-1.62,-1.00,-6.68,-1.0,2.0,115.9,37.52,1.34,43.222190,-0.051804,12,1,8.12,440.70
237664,0.17,-0.03,0.07,-3.62,1.18,-2.43,-0.9,2.2,117.1,37.53,1.31,43.222190,-0.051804,12,1,8.12,440.70
237970,0.15,-0.07,-0.11,0.18,-1.87,2.37,-0.9,2.1,117.3,37.54,1.30,43.222190,-0.051804,12,1,8.12,440.60
238276,0.15,-0.02,-0.05,2.68,-0.43,5.50,-1.0,2.0,116.4,37.55,1.47,43.222190,-0.051804,12,1,8.12,440.60
238582,-0.17,-0.19,0.07,2.50,2.37,10.37,-1.4,1.2,114.4,37.55,1.44,43.222190,-0.051804,12,1,8.10,440.60
239194,-0.10,0.23,-0.12,7.06,0.56,5.12,-1.6,-0.6,109.7,37.57,1.32,43.222190,-0.051804,12,1,8.10,440.60
239500,-0.22,-0.12,-0.27,3.00,1.62,9.87,-2.1,-2.2,107.2,37.58,1.28,43.222190,-0.051803,12,1,8.11,440.60
239806,-0.01,0.25,-0.40,-1.18,0.75,-6.12,-2.2,-2.8,106.5,37.59,1.21,43.222190,-0.051803,12,1,8.11,440.60
240112,0.11,0.23,-0.18,1.43,1.75,-7.06,-3.3,-2.9,108.7,37.60,1.19,43.222190,-0.051803,12,1,8.11,440.60
240724,0.12,-0.40,-0.41,0.18,-4.25,-19.37,-2.3,-2.7,117.4,37.62,1.16,43.222190,-0.051802,12,1,8.11,440.70
241030,0.15,0.02,-0.22,8.37,-6.50,-5.37,-3.0,-2.5,119.7,37.63,1.10,43.222190,-0.051802,12,1,8.11,440.60
241336,-0.02,0.03,-0.20,1.00,-1.43,1.56,-1.5,-3.7,119.0,37.64,1.11,43.222190,-0.051802,12,1,8.11,440.60
241642,-0.01,0.20,0.12,-3.00,3.81,-2.68,-0.8,-2.6,118.2,37.65,1.13,43.222190,-0.051800,12,1,8.11,440.60
241948,0.44,-0.55,0.66,-3.06,-2.93,-0.12,-1.5,-3.3,118.6,37.66,1.23,43.222190,-0.051800,12,1,8.11,440.60
242866,0.17,-0.22,0.00,1.18,2.18,3.43,-0.7,-4.6,117.8,37.68,1.19,43.222190,-0.051800,12,1,8.11,440.50
243172,-0.10,-0.18,0.31,-6.25,4.12,-1.25,-1.3,-3.9,117.6,37.69,1.16,43.222190,-0.051800,12,1,8.11,440.50
243478,-0.02,-0.00,-0.27,1.25,2.81,-0.68,-2.3,-3.4,118.3,37.70,1.13,43.222190,-0.051799,12,1,8.11,440.50
243784,0.07,0.05,-0.11,4.50,0.37,-0.81,-2.3,-3.6,118.5,37.71,1.18,43.222190,-0.051799,12,1,8.11,440.50
244090,0.05,-0.12,0.31,-0.06,-0.75,0.00,-2.0,-3.6,118.5,37.72,1.16,43.222190,-0.051799,12,1,8.11,440.50
244396,0.07,-0.35,0.41,-13.68,-12.25,-3.12,-1.9,-3.0,120.1,37.72,1.13,43.222190,-0.051799,12,1,8.11,440.50
245008,0.25,0.61,-1.33,-4.93,27.37,1.37,-6.7,0.1,124.1,37.74,1.16,43.222183,-0.051797,12,1,8.11,440.50
245314,0.12,-0.05,-0.22,-8.00,-32.75,-17.75,-5.6,3.8,125.9,37.75,1.23,43.222183,-0.051797,12,1,8.11,440.50
245620,0.30,0.10,-0.40,1.87,5.31,2.12,-4.3,5.6,127.2,37.76,1.28,43.222183,-0.051797,12,1,8.11,440.50
245926,0.12,-0.25,0.11,-1.50,-6.00,0.43,-3.5,6.8,126.6,37.76,1.26,43.222183,-0.051797,12,1,8.11,440.50
246538,0.07,0.13,-0.33,-7.37,7.31,0.93,-2.4,5.5,127.4,37.78,1.34,43.222183,-0.051797,12,1,8.10,440.50
247150,0.00,-0.12,0.03,3.06,0.37,-3.68,-1.9,6.1,127.5,37.79,1.28,43.222183,-0.051797,12,1,8.10,440.50
247456,-0.05,-0.60,0.56,2.06,4.06,-1.56,-2.3,6.1,128.0,37.80,1.35,43.222190,-0.051798,12,1,8.11,440.50
247762,0.10,0.07,0.05,2.06,-2.87,5.06,-1.4,3.8,127.8,37.81,1.30,43.222190,-0.051798,12,1,8.11,440.50
248068,-0.18,-0.27,0.36,8.62,-7.50,0.50,-0.5,4.1,127.3,37.82,1.30,43.222190,-0.051798,12,1,8.11,440.50
248374,-0.09,-0.11,-0.20,0.62,-2.18,-2.81,1.8,2.0,127.6,37.82,1.36,43.222190,-0.051798,12,1,8.11,440.50
248680,0.07,-0.15,0.23,-0.06,-5.68,0.12,4.1,1.7,127.8,37.83,1.30,43.222190,-0.051798,12,1,8.11,440.60
248986,0.18,-0.37,-0.02,0.68,19.50,-3.06,1.8,1.6,127.9,37.84,1.25,43.222190,-0.051798,12,1,8.11,440.60
249292,0.43,1.37,1.22,5.18,17.43,-6.50,-1.6,0.8,131.1,37.85,1.21,43.222190,-0.051798,12,1,8.11,440.60
249598,-0.83,0.83,0.60,26.06,-66.93,39.81,6.3,-4.9,123.0,37.86,1.13,43.222190,-0.051797,12,1,8.11,440.70
250210,0.72,-0.18,-0.11,-1.43,6.56,34.87,1.8,-6.3,99.8,37.88,1.21,43.222190,-0.051797,12,1,8.11,440.89
250516,0.86,0.75,0.41,-6.25,10.12,7.25,0.2,-1.7,92.1,37.89,1.25,43.222190,-0.051797,12,1,8.12,440.79
250822,-0.07,-0.07,0.07,-4.93,-10.81,-5.62,0.5,-1.4,92.8,37.90,1.19,43.222190,-0.051797,12,1,8.12,440.79
251128,-0.37,0.25,-0.07,-0.62,-5.87,-2.31,1.4,-1.0,94.2,37.90,1.19,43.222190,-0.051797,12,1,8.12,440.70
251740,0.12,0.18,-0.03,1.93,-3.00,6.75,1.8,-2.1,92.3,37.92,1.18,43.222190,-0.051796,12,1,8.11,440.70
252046,-0.13,-0.46,0.07,-2.50,0.81,-3.00,1.3,-1.8,91.1,37.93,1.14,43.222190,-0.051796,12,1,8.11,440.79
252352,-0.10,0.25,-0.33,2.75,-1.87,3.50,1.2,-2.5,91.3,37.94,1.12,43.222190,-0.051796,12,1,8.11,440.79
252658,0.20,0.17,0.03,2.25,-2.81,2.18,1.5,-2.5,89.5,37.95,1.18,43.222190,-0.051797,12,1,8.11,440.79
252964,0.11,0.15,-0.05,-0.62,-0.50,8.12,1.8,-3.0,87.8,37.96,1.18,43.222190,-0.051797,12,1,8.11,440.79
253270,-0.00,-0.12,0.23,-1.43,3.43,-4.12,1.7,-3.1,87.5,37.97,1.19,43.222190,-0.051797,12,1,8.11,440.79
253576,-0.20,0.17,-0.05,-2.06,-0.50,-2.56,1.6,-3.1,88.9,37.98,1.18,43.222190,-0.051798,12,1,8.11,440.79
253882,-0.30,0.19,0.00,-2.75,-2.37,-1.43,2.2,-2.6,89.8,37.98,1.15,43.222190,-0.051798,12,1,8.11,440.79
254188,-0.07,0.01,0.00,-0.50,-1.12,-2.18,2.6,-2.4,90.4,38.00,1.14,43.222190,-0.051798,12,1,8.11,440.79
254494,0.18,-0.02,-0.01,3.06,-2.37,-3.06,2.8,-2.6,91.1,38.01,1.11,43.222190,-0.051798,12,1,8.11,440.89
254800,0.01,0.12,0.00,0.00,-0.93,1.00,2.8,-3.1,91.7,38.01,1.12,43.222190,-0.051799,12,1,8.11,440.89
255412,0.15,0.30,0.15,0.25,-5.75,-3.18,4.1,-3.3,93.5,38.03,1.09,43.222190,-0.051799,12,1,8.11,441.00
255718,1.11,-0.40,0.22,-13.56,-51.31,-9.50,7.4,-2.9,93.2,38.04,1.09,43.222190,-0.051800,12,1,8.11,441.10
256024,0.58,-0.88,-1.45,-19.18,-14.56,16.75,9.3,-5.8,92.8,38.05,1.10,43.222190,-0.051800,12,1,8.11,441.10
256330,-0.07,0.20,-0.95,-1.62,34.62,20.18,9.3,-4.8,90.0,38.06,1.11,43.222190,-0.051800,12,1,8.11,441.10
256636,-0.38,0.00,-0.25,-5.50,1.31,1.56,5.6,-3.9,88.7,38.07,1.09,43.222190,-0.051799,12,1,8.11,441.10
256942,-0.17,-0.07,-0.11,2.56,3.62,-6.43,6.1,-3.5,88.6,38.08,1.09,43.222190,-0.051799,12,1,8.11,441.20
257248,0.30,-0.27,0.11,-4.68,0.37,1.68,6.0,-4.0,87.4,38.09,1.08,43.222190,-0.051799,12,1,8.11,441.20
257554,0.47,-0.15,-0.00,8.50,3.00,-3.68,3.6,-4.2,87.8,38.10,1.09,43.222190,-0.051799,12,1,8.12,441.20
257860,0.15,0.00,-0.40,2.12,0.18,-1.25,3.1,-4.1,88.6,38.11,1.08,43.222190,-0.051799,12,1,8.12,441.20
258166,0.07,-0.03,-0.13,-0.18,-0.75,-1.00,2.5,-4.2,88.6,38.12,1.06,43.222190,-0.051799,12,1,8.12,441.20
258778,-0.09,0.11,-0.07,2.81,2.31,0.00,2.5,-4.9,89.0,38.14,1.13,43.222190,-0.051799,12,1,8.11,441.20
259084,0.20,-0.07,-0.05,0.56,-0.56,1.56,2.6,-5.3,88.5,38.14,1.12,43.222190,-0.051799,12,1,8.11,441.20
259390,0.55,-0.05,1.25,-13.00,-0.62,-60.31,-1.7,-4.6,93.9,38.15,1.13,43.222190,-0.051799,12,1,8.11,441.20
259696,-0.98,-0.44,-0.20,-4.75,-24.43,-62.25,-3.0,-5.6,109.2,38.16,1.14,43.222190,-0.051800,12,1,8.11,441.20
260308,0.20,0.51,-0.30,10.68,13.31,-3.81,-1.8,4.6,124.0,38.18,1.17,43.222190,-0.051800,12,1,8.11,441.20
260614,0.09,0.15,-0.31,9.12,14.25,3.81,-2.1,4.1,127.3,38.19,1.18,43.222190,-0.051803,12,1,8.11,441.20
260920,0.20,-0.22,0.15,8.93,-2.43,-0.62,-2.6,2.3,127.2,38.20,1.11,43.222190,-0.051803,12,1,8.11,441.20
261226,0.00,0.02,-0.17,7.37,6.18,5.31,-1.5,1.3,127.5,38.21,1.06,43.222190,-0.051803,12,1,8.11,441.20
261838,0.19,-0.07,-0.09,2.06,-2.68,-2.50,-1.6,0.6,126.8,38.23,1.04,43.222190,-0.051804,12,1,8.11,441.29
262144,0.05,0.03,-0.23,-1.68,1.25,2.00,-0.9,0.3,127.3,38.24,1.04,43.222190,-0.051804,12,1,8.11,441.29
262450,-0.05,-0.05,0.23,1.62,-3.43,-1.50,-0.1,1.1,127.8,38.25,1.07,43.222190,-0.051804,12,1,8.11,441.39
263062,-0.11,0.11,-0.01,10.81,-2.62,0.00,0.1,-1.0,128.4,38.27,1.15,43.222190,-0.051805,12,1,8.11,441.39
263368,0.02,-0.13,0.31,-13.25,-25.25,-9.25,2.6,-0.4,129.1,38.27,1.17,43.222190,-0.051805,12,1,8.11,441.39
263674,0.44,0.40,-0.51,6.12,9.25,4.50,5.2,-1.1,129.8,38.28,1.13,43.222190,-0.051806,12,1,8.11,441.39
263980,0.07,-0.18,0.09,5.68,-5.06,0.06,5.4,-0.6,129.9,38.29,1.09,43.222190,-0.051806,12,1,8.11,441.39
264286,-0.07,-0.34,0.49,6.06,-2.12,-0.81,5.1,-1.1,129.8,38.30,1.09,43.222190,-0.051806,12,1,8.11,441.39
264592,-0.10,0.18,-0.20,-1.87,2.43,-1.81,4.8,-1.9,130.0,38.31,1.07,43.222190,-0.051806,12,1,8.11,441.39
264898,-0.01,0.00,0.00,-1.56,-13.56,-3.62,6.0,-0.4,130.4,38.32,1.06,43.222190,-0.051807,12,1,8.11,441.50
265204,0.09,-0.07,-0.11,-4.31,-8.50,-1.31,8.1,0.0,130.6,38.33,1.07,43.222190,-0.051807,12,1,8.11,441.39
265510,0.11,0.02,-0.07,-2.93,1.43,3.56,8.9,0.0,130.6,38.33,1.13,43.222190,-0.051807,12,1,8.11,441.39
265816,0.05,-0.02,0.07,7.62,-0.68,-2.06,9.2,-0.5,130.0,38.34,1.23,43.222190,-0.051807,12,1,8.11,441.39
266122,0.07,-0.02,-0.10,4.75,3.00,1.12,8.7,-1.7,130.2,38.35,1.19,43.222190,-0.051807,12,1,8.11,441.50
266428,-0.07,0.00,-0.09,1.00,5.06,3.87,7.1,-2.7,129.9,38.36,1.09,43.222190,-0.051807,12,1,8.11,441.60
267040,-0.10,-0.13,0.03,0.12,-7.43,-3.56,6.5,-4.6,129.6,38.38,1.06,43.222190,-0.051809,12,1,8.11,441.60
267346,0.00,0.00,-0.12,-5.93,-5.75,-0.50,7.2,-4.6,129.8,38.39,1.12,43.222190,-0.051809,12,1,8.11,441.70
267652,0.17,-0.10,-0.15,-9.87,2.81,-3.25,7.3,-3.5,129.8,38.39,1.10,43.222190,-0.051811,12,1,8.11,441.70
267958,0.00,0.02,-0.11,-2.00,5.12,2.00,6.6,-1.2,130.5,38.40,1.07,43.222190,-0.051811,12,1,8.11,441.70
268264,0.19,-0.07,-0.01,0.87,-1.50,-0.50,5.8,-0.4,130.3,38.41,1.09,43.222190,-0.051811,12,1,8.11,441.79
268570,0.00,0.00,-0.07,2.06,-4.25,-1.06,6.3,-0.5,130.6,38.42,1.14,43.222190,-0.051811,12,1,8.11,441.79
268876,0.18,-0.10,0.19,-3.31,-3.00,-1.06,6.3,-0.1,130.5,38.43,1.12,43.222190,-0.051812,12,1,8.11,441.79
269182,0.05,0.25,-0.33,5.75,3.93,5.12,5.5,-0.6,129.8,38.44,1.14,43.222190,-0.051812,12,1,8.11,441.79
269488,0.17,-0.22,0.19,4.18,6.81,1.56,6.8,0.3,129.9,38.45,1.13,43.222190,-0.051812,12,1,8.11,441.79
269794,-0.22,-0.07,0.12,-0.06,3.25,0.75,7.0,0.5,130.6,38.46,1.16,43.222190,-0.051812,12,1,8.11,441.79
270406,0.02,-0.25,-0.34,4.62,1.43,-0.50,6.1,0.2,130.5,38.47,1.18,43.222190,-0.051812,12,1,8.11,441.79
270712,0.07,0.17,-0.25,5.43,4.31,1.06,6.0,-0.8,130.6,38.48,1.19,43.222190,-0.051812,12,1,8.10,441.79
271018,0.00,-0.02,-0.17,2.18,-1.62,-0.93,4.7,-1.8,130.3,38.49,1.20,43.222190,-0.051812,12,1,8.10,441.79
271324,-0.03,0.19,-0.25,4.31,12.75,0.87,3.5,-3.0,130.5,38.50,1.21,43.222190,-0.051812,12,1,8.10,441.79
271630,0.07,0.15,-0.19,5.87,3.12,-5.50,3.4,-4.1,131.3,38.50,1.21,43.222190,-0.051812,12,1,8.10,441.79
271936,-0.10,0.00,-0.10,0.12,-2.93,-1.43,3.3,-4.9,132.1,38.51,1.21,43.222190,-0.051812,12,1,8.11,441.79
272242,0.03,0.00,-0.37,1.68,1.31,1.31,3.3,-5.2,131.8,38.52,1.19,43.222190,-0.051812,12,1,8.11,441.89
272854,0.13,-0.03,-0.07,1.43,-0.06,-2.12,3.3,-6.1,133.0,38.54,1.20,43.222190,-0.051813,12,1,8.11,441.89
273160,0.05,-0.09,-0.27,1.75,-0.06,-2.43,2.8,-6.6,133.8,38.55,1.15,43.222190,-0.051813,12,1,8.11,441.89
273466,-0.07,0.17,-0.25,0.68,3.75,5.75,1.3,-6.8,133.6,38.55,1.24,43.222190,-0.051813,12,1,8.11,441.70
273772,0.05,-0.19,0.11,-2.93,2.31,1.43,0.9,-6.1,132.6,38.56,1.26,43.222190,-0.051813,12,1,8.10,441.70
274078,0.25,-0.00,-0.35,1.68,-0.31,2.12,1.1,-6.3,132.0,38.57,1.29,43.222190,-0.051813,12,1,8.10,441.60
274384,-0.12,0.05,0.01,0.25,0.43,-2.81,1.6,-5.9,132.6,38.57,1.26,43.222190,-0.051813,12,1,8.10,441.50
274996,-0.07,-0.07,0.03,-1.18,-2.75,0.06,1.8,-6.5,132.7,38.59,1.25,43.222190,-0.051814,12,1,8.10,441.60
275302,0.03,0.00,0.00,0.18,-2.18,-0.56,1.6,-6.6,132.5,38.60,1.26,43.222190,-0.051814,12,1,8.10,441.50
275608,0.07,-0.00,-0.13,-2.18,0.87,-0.06,1.6,-6.5,132.6,38.61,1.27,43.222190,-0.051814,12,1,8.10,441.60
275914,-0.00,-0.01,0.03,-0.31,1.12,-0.18,1.5,-6.1,132.9,38.61,1.27,43.222190,-0.051812,12,1,8.11,441.60
276526,0.00,-0.09,-0.00,-1.50,-1.43,1.93,1.5,-6.0,132.4,38.62,1.26,43.222190,-0.051812,12,1,8.11,441.70
276832,0.00,-0.01,-0.09,-2.00,-1.00,-1.25,1.6,-5.6,132.2,38.63,1.24,43.222190,-0.051810,12,1,8.11,441.60
277138,0.13,-0.09,-0.11,-0.18,-0.25,-2.12,1.5,-5.5,132.5,38.64,1.31,43.222190,-0.051810,12,1,8.11,441.60
277444,0.11,-0.11,0.00,-0.18,0.93,0.06,1.1,-5.6,132.8,38.65,1.29,43.222190,-0.051810,12,1,8.11,441.60
277750,0.00,-0.09,-0.05,-2.18,-1.62,-0.93,1.0,-5.6,132.8,38.66,1.25,43.222190,-0.051809,12,1,8.11,441.60
278056,0.07,-0.03,-0.05,-1.12,-1.87,0.12,1.1,-5.5,132.9,38.66,1.34,43.222190,-0.051809,12,1,8.11,441.60
278362,0.00,-0.07,0.00,-1.00,-1.87,-1.87,1.2,-5.3,133.0,38.67,1.37,43.222190,-0.051809,12,1,8.11,441.60
278668,0.07,-0.00,-0.05,0.87,-0.93,-1.00,1.1,-5.5,133.1,38.67,1.44,43.222190,-0.051809,12,1,8.11,441.50
279280,0.00,-0.02,-0.12,0.00,0.12,-1.62,1.5,-5.3,133.1,38.68,1.53,43.222190,-0.051807,12,1,8.11,441.39
279586,0.05,-0.05,0.03,0.56,0.81,-1.12,1.1,-5.4,133.3,38.69,1.39,43.222190,-0.051807,12,1,8.11,441.39
279892,0.12,0.05,-0.27,1.25,1.56,-0.06,0.7,-5.5,133.4,38.70,1.36,43.222190,-0.051805,12,1,8.11,441.29
280504,-0.27,0.22,-0.15,2.68,3.00,-1.56,0.8,-5.8,133.9,38.71,1.36,43.222190,-0.051805,12,1,8.11,441.29
280810,-0.15,-0.09,0.30,-3.75,-1.75,0.31,0.6,-6.1,133.3,38.72,1.30,43.222190,-0.051804,12,1,8.11,441.20
281116,-0.33,0.31,-0.38,3.31,1.43,1.62,1.3,-8.2,133.6,38.73,1.26,43.222190,-0.051804,12,1,8.11,441.20
281422,0.17,-0.11,-0.33,-1.81,-0.81,-2.37,2.9,-6.7,132.1,38.73,1.26,43.222190,-0.051804,12,1,8.11,441.20
281728,0.03,0.20,-0.15,0.31,-8.87,-4.43,3.7,-6.5,132.8,38.75,1.23,43.222190,-0.051804,12,1,8.11,441.10
282034,0.07,0.01,-0.18,3.87,0.93,2.06,3.5,-5.8,132.8,38.75,1.23,43.222190,-0.051803,12,1,8.11,441.10
282340,0.15,-0.33,-0.09,0.93,2.18,-0.31,3.7,-6.0,132.4,38.76,1.22,43.222190,-0.051803,12,1,8.11,441.10
282646,-0.03,-0.00,-0.10,10.00,2.62,2.81,4.1,-5.7,132.8,38.77,1.25,43.222190,-0.051803,12,1,8.11,441.00
283258,0.20,-0.12,-0.05,0.62,3.31,3.18,4.3,-5.9,132.3,38.78,1.16,43.222190,-0.051803,12,1,8.11,441.00
283564,0.07,0.01,-0.15,0.06,-0.62,0.37,4.0,-6.2,132.0,38.79,1.19,43.222190,-0.051803,12,1,8.11,440.89
283870,0.07,0.02,-0.40,-1.56,3.50,1.18,4.1,-6.6,131.6,38.80,1.17,43.222190,-0.051802,12,1,8.11,440.89
284176,-0.10,0.00,-0.17,2.12,1.50,-1.06,3.6,-6.6,131.8,38.81,1.22,43.222190,-0.051802,12,1,8.11,440.89
284482,0.10,-0.15,-0.07,1.12,3.12,1.12,2.8,-6.5,131.6,38.81,1.21,43.222190,-0.051802,12,1,8.11,440.89
285094,-0.07,-0.15,-0.05,-3.62,1.12,-4.12,1.3,-5.9,132.5,38.83,1.22,43.222190,-0.051802,12,1,8.11,440.89
285400,0.36,-0.07,-0.88,2.56,8.50,4.06,0.8,-5.2,132.1,38.84,1.20,43.222190,-0.051802,12,1,8.11,440.79
285706,-0.09,0.05,-0.15,1.56,-4.75,-2.37,0.3,-3.7,130.5,38.84,1.27,43.222190,-0.051802,12,1,8.11,440.70
286012,0.45,0.15,0.18,-3.00,-15.56,4.68,-0.9,-3.1,130.0,38.85,1.34,43.222190,-0.051802,12,1,8.11,440.70
286318,-0.01,1.30,0.02,31.56,15.93,-23.62,-1.5,-6.5,134.7,38.86,1.30,43.222190,-0.051802,12,1,8.11,440.70
286930,1.11,-0.98,0.28,40.75,-28.56,-27.87,-3.1,-14.3,143.5,38.87,1.24,43.222190,-0.051802,12,1,8.10,440.79
287542,0.45,2.18,-2.97,31.75,7.37,11.81,-2.5,-15.5,145.0,38.88,1.34,43.222190,-0.051802,12,1,8.10,440.79
287848,0.74,1.14,-2.95,57.68,15.25,4.37,-3.1,-15.9,143.0,38.89,1.32,43.222190,-0.051801,12,1,8.10,440.70
288154,0.97,0.85,-2.34,57.93,28.87,24.62,-4.3,-18.4,142.5,38.90,1.23,43.222190,-0.051801,12,1,8.10,440.70
288460,0.49,-0.03,-0.86,-5.00,-18.62,2.18,-3.5,-19.1,140.6,38.91,1.16,43.222190,-0.051801,12,1,8.10,440.79
289072,-0.02,-0.20,-0.22,-8.56,-4.75,-6.81,-4.2,-19.4,137.3,38.92,1.21,43.222190,-0.051800,12,1,8.10,441.00
289378,-0.70,0.61,-0.81,4.37,13.37,-2.25,-4.1,-19.9,138.6,38.93,1.23,43.222190,-0.051800,12,1,8.10,441.20
289684,0.22,-1.25,1.75,-5.37,-7.31,-3.37,-3.0,-21.0,140.0,38.94,1.32,43.222190,-0.051800,12,1,8.10,441.29
289990,0.75,-0.07,1.71,38.37,-26.93,5.00,-2.3,-21.6,140.4,38.95,1.30,43.222190,-0.051801,12,1,8.10,441.39
290602,0.72,0.27,-0.93,-7.62,-14.12,6.00,-2.2,-23.8,137.5,38.96,1.27,43.222190,-0.051801,12,1,8.10,441.50
291214,0.15,0.55,0.11,-23.12,7.50,26.18,-3.8,-12.7,128.3,38.98,1.19,43.222190,-0.051801,12,1,8.11,441.50
291520,-1.27,0.55,-0.34,13.62,11.62,107.93,-1.5,-9.9,110.4,38.98,1.10,43.222190,-0.051801,12,1,8.11,441.60
291826,-1.65,-0.51,1.24,-5.37,-2.62,171.37,1.9,-13.6,70.6,38.99,1.14,43.222190,-0.051801,12,1,8.11,441.70
292132,-2.76,-0.18,1.26,-30.87,36.37,231.50,-0.7,-8.0,4.2,39.00,1.14,43.222190,-0.051801,12,1,8.11,441.60
292744,0.45,1.25,-0.18,-28.62,-3.31,64.00,-4.5,1.5,293.7,39.01,1.93,43.222190,-0.051801,12,1,8.11,441.60
293356,1.50,0.17,-0.56,3.06,0.25,33.62,-6.3,5.5,259.9,39.00,1.68,43.222202,-0.051797,12,1,8.10,441.50
293662,-0.35,-1.73,2.32,15.87,-41.43,-11.18,-2.5,2.1,257.6,39.01,1.08,43.222202,-0.051797,12,1,8.10,441.29
293968,0.15,0.33,-1.48,-18.87,0.50,-32.50,1.6,4.1,264.1,39.02,0.90,43.222202,-0.051805,12,1,8.10,441.10
294274,0.13,1.21,-1.22,5.50,11.50,-21.00,3.0,7.0,277.2,39.02,1.60,43.222202,-0.051805,12,1,8.10,441.10
294580,0.52,-0.33,0.11,-8.56,19.62,-17.31,-0.1,10.2,285.6,39.01,2.39,43.222202,-0.051805,12,1,8.10,440.89
294886,1.40,0.67,-0.20,23.37,8.62,-3.50,-3.9,8.9,288.5,39.00,2.81,43.222202,-0.051805,12,1,8.10,440.79
295192,0.15,-1.48,0.93,-16.62,-20.68,-17.50,-2.6,6.5,293.2,38.99,2.68,43.222202,-0.051813,12,1,8.10,440.70
295804,0.36,-0.15,-0.11,-10.93,2.25,-68.18,6.8,12.5,333.1,38.98,3.08,43.222202,-0.051813,12,1,8.10,440.79
296110,0.36,-0.28,-0.13,-19.37,16.62,-50.87,4.8,12.6,352.0,38.98,2.18,43.222209,-0.051823,12,1,8.11,440.79
296416,0.37,-0.19,0.55,2.93,3.37,-41.43,3.2,13.3,6.3,38.99,1.43,43.222209,-0.051823,12,1,8.11,440.70
296722,0.15,0.45,-0.28,10.87,7.37,-22.00,3.3,10.5,15.8,39.01,1.08,43.222209,-0.051823,12,1,8.11,440.79
297028,-0.47,0.20,-0.74,10.12,8.31,-5.18,0.8,6.6,19.1,39.01,1.08,43.222209,-0.051831,12,1,8.11,440.70
297334,-0.22,0.85,-0.07,-3.50,-0.87,-9.68,-0.9,7.6,21.6,39.02,1.17,43.222209,-0.051831,12,1,8.11,440.79
297640,-0.03,-0.10,-0.34,-10.06,-11.62,12.06,0.8,7.5,22.8,39.02,1.19,43.222209,-0.051831,12,1,8.11,440.89
297946,0.31,-0.23,-0.54,1.31,2.56,15.93,2.5,7.6,18.0,39.03,1.20,43.222209,-0.051834,12,1,8.10,440.89
298252,-0.11,-0.27,0.54,-4.06,-1.12,1.62,2.0,8.1,15.3,39.03,1.28,43.222209,-0.051834,12,1,8.10,440.79
298558,0.01,-0.13,-0.37,3.87,3.43,-2.18,2.7,9.5,14.6,39.04,1.28,43.222209,-0.051834,12,1,8.10,440.50
298864,0.27,-0.09,-0.02,-6.06,-9.06,3.12,3.1,10.8,14.2,39.04,1.32,43.222209,-0.051834,12,1,8.10,440.50
299170,-0.01,-0.20,0.00,-2.06,1.81,-8.50,4.2,11.1,16.0,39.05,1.33,43.222217,-0.051833,12,1,8.11,440.50
299782,-0.19,-0.07,0.01,-2.87,-2.00,-1.06,4.8,8.2,19.8,39.05,1.50,43.222217,-0.051833,12,1,8.11,440.29
300088,0.15,0.05,-0.02,0.25,5.37,-10.62,4.6,7.2,22.1,39.06,1.50,43.222217,-0.051832,12,1,8.10,440.29
300394,0.20,-0.03,0.03,0.18,-0.31,-5.37,4.4,7.3,24.3,39.06,1.43,43.222217,-0.051832,12,1,8.10,440.39
300700,0.40,0.11,-0.11,0.06,2.62,-19.68,5.4,8.2,27.2,39.07,1.32,43.222217,-0.051832,12,1,8.10,440.39
301006,0.57,0.02,0.00,-10.68,9.18,24.12,3.1,8.0,27.1,39.07,1.29,43.222217,-0.051832,12,1,8.11,440.39
301312,-0.86,-0.18,0.37,1.18,-31.75,35.81,1.4,7.2,15.2,39.08,1.23,43.222217,-0.051832,12,1,8.11,440.50
301618,-0.75,0.23,-0.22,-6.68,5.12,16.81,1.3,7.7,6.6,39.08,1.21,43.222217,-0.051832,12,1,8.11,440.60
301924,-0.55,-0.22,0.12,-5.81,13.06,-7.62,-1.5,11.6,7.0,39.09,1.24,43.222217,-0.051832,12,1,8.11,440.60
302230,-0.02,-0.66,0.22,10.12,1.50,-17.18,-1.8,11.6,10.8,39.09,1.24,43.222217,-0.051833,12,1,8.11,440.60
302536,-0.41,-0.07,0.01,-1.18,-0.18,-17.06,-1.1,10.7,15.1,39.10,1.25,43.222217,-0.051833,12,1,8.11,440.60
302842,0.37,-0.33,0.31,-4.62,-16.75,-15.00,0.1,11.8,19.8,39.11,1.30,43.222217,-0.051833,12,1,8.11,440.70
303148,-0.07,-0.22,0.37,3.75,1.25,-5.31,0.4,10.8,22.8,39.11,1.29,43.222217,-0.051833,12,1,8.11,440.70
303760,-0.11,0.25,-0.20,7.62,7.31,-23.00,0.9,6.2,33.5,39.13,1.22,43.222217,-0.051833,12,1,8.11,440.60
304066,-0.27,-0.56,0.15,15.31,-1.12,-1.68,0.6,6.2,35.6,39.13,1.27,43.222217,-0.051836,12,1,8.10,440.60
304372,-0.01,-0.54,0.11,1.93,-2.31,-26.75,1.3,4.8,40.1,39.14,1.30,43.222217,-0.051836,12,1,8.10,440.70
304678,-0.12,-0.30,0.63,13.81,8.12,-18.81,1.1,3.5,49.3,39.14,1.27,43.222217,-0.051836,12,1,8.10,440.79
304984,-0.13,-0.37,-0.66,11.62,10.18,14.31,3.3,0.0,49.3,39.15,1.21,43.222217,-0.051836,12,1,8.10,440.79
305290,-0.41,0.44,-0.40,-5.43,-0.81,30.31,1.6,-2.0,40.6,39.16,1.15,43.222217,-0.051840,12,1,8.10,440.79
305596,0.00,0.58,0.38,0.75,4.18,-6.12,0.5,-0.8,38.6,39.16,1.22,43.222217,-0.051840,12,1,8.10,441.00
306208,-0.40,-0.23,0.41,2.68,-11.56,-30.56,0.5,-3.0,54.0,39.18,1.16,43.222217,-0.051840,12,1,8.11,441.10
306514,0.63,-0.30,-0.63,-0.68,0.68,-35.12,0.3,-3.3,66.0,39.19,1.23,43.222217,-0.051840,12,1,8.11,441.10
306820,0.77,0.37,-1.22,5.06,12.37,-47.06,-0.5,-0.5,79.7,39.19,1.35,43.222217,-0.051840,12,1,8.11,441.20
307126,0.18,-0.85,-0.77,22.62,11.50,-42.43,-2.1,-1.5,90.5,39.20,1.25,43.222217,-0.051842,12,1,8.10,441.20
307432,0.69,-0.20,-0.34,16.12,-7.56,-53.31,-3.5,-5.0,106.5,39.21,1.24,43.222217,-0.051842,12,1,8.10,441.29
308044,0.07,0.65,-0.50,-3.18,8.56,-94.25,-3.7,-1.3,165.1,39.22,1.27,43.222217,-0.051846,12,1,8.11,441.39
308350,-0.02,-0.40,0.97,3.50,-18.93,-54.43,-3.5,-0.9,187.2,39.23,1.22,43.222217,-0.051846,12,1,8.11,441.50
308962,1.23,-0.11,-0.47,5.87,7.50,19.68,-5.1,-3.1,206.6,39.24,1.15,43.222217,-0.051846,12,1,8.11,441.60
309268,-0.47,0.20,-2.24,19.50,25.68,32.25,-3.5,-7.6,196.8,39.25,1.06,43.222209,-0.051854,12,1,8.10,441.60
309574,0.40,-0.07,-0.05,-7.31,-11.25,-2.31,-1.3,-6.0,194.9,39.25,1.11,43.222209,-0.051854,12,1,8.10,441.50
309880,0.11,0.88,-0.11,2.93,1.68,-5.43,-2.4,-4.3,199.1,39.26,1.14,43.222209,-0.051854,12,1,8.10,441.50
310186,-0.49,-0.72,-1.34,2.18,-5.75,3.56,-1.3,-4.4,199.7,39.27,1.03,43.222209,-0.051860,12,1,8.11,441.39
310492,0.45,0.07,0.10,-4.68,14.18,13.68,-3.9,-2.0,196.6,39.27,0.93,43.222209,-0.051860,12,1,8.11,441.39
310798,0.50,-0.34,0.22,14.06,-5.06,3.62,-5.2,-4.2,192.8,39.28,0.90,43.222209,-0.051860,12,1,8.11,441.29
311410,-0.91,0.09,-0.73,11.81,0.56,22.62,-1.1,-4.6,182.7,39.28,1.78,43.222209,-0.051869,12,1,8.10,441.29
311716,-0.20,0.22,-1.27,2.06,24.25,49.50,-3.9,-6.8,174.4,39.29,1.58,43.222209,-0.051869,12,1,8.10,441.29
312022,0.33,-0.51,0.27,-8.43,-2.43,38.12,-3.9,-4.8,160.0,39.29,1.36,43.222209,-0.051869,12,1,8.10,441.29
312634,-0.25,-0.41,-0.77,-11.25,-1.68,-28.68,-3.4,-4.6,159.5,39.30,1.28,43.222209,-0.051879,12,1,8.10,441.39
313246,0.27,0.45,-0.13,3.50,-11.50,-47.75,-3.1,-3.8,186.7,39.31,1.55,43.222209,-0.051881,12,1,8.10,441.39
313858,0.85,0.11,-0.69,20.37,-16.25,-33.06,-7.1,-6.0,209.5,39.32,1.23,43.222209,-0.051881,12,1,8.10,441.39
314164,-0.79,-0.43,-0.27,-7.93,1.18,-15.68,-3.1,-5.1,217.3,39.32,1.08,43.222209,-0.051884,12,1,8.11,441.29
314470,0.91,0.02,-0.11,6.87,-1.06,-12.68,-4.3,-4.3,222.1,39.33,1.02,43.222209,-0.051884,12,1,8.11,441.29
314776,0.85,-0.02,1.01,10.37,-8.62,5.50,-5.9,-6.0,223.2,39.34,0.99,43.222209,-0.051884,12,1,8.11,441.29
315082,-1.15,-0.81,2.53,-23.75,-47.43,0.93,-1.0,-3.6,219.0,39.34,0.89,43.222209,-0.051884,12,1,8.11,441.20
315388,-0.40,0.05,0.09,-7.56,0.68,-25.43,-3.4,-4.5,221.8,39.35,0.89,43.222209,-0.051888,12,1,8.11,441.20
316000,1.00,-0.40,-0.83,-0.25,22.37,12.62,-5.0,-2.5,226.6,39.36,0.86,43.222209,-0.051888,12,1,8.11,441.20
316306,-1.28,-1.53,1.88,1.87,-8.93,18.37,-6.3,-2.9,223.3,39.37,0.85,43.222217,-0.051899,12,1,8.10,441.20
316612,0.05,-0.19,-0.93,-16.50,1.68,-13.87,-6.0,-0.3,224.0,39.37,0.85,43.222217,-0.051899,12,1,8.10,441.10
316918,-1.86,-1.26,3.24,-42.12,2.00,-31.75,-3.2,3.0,229.2,39.38,0.80,43.222217,-0.051899,12,1,8.10,441.10
317530,-0.93,0.13,1.59,29.87,-9.93,42.43,-3.9,-2.6,223.6,39.39,0.87,43.222217,-0.051911,12,1,8.10,441.10
317836,-0.17,-0.47,-2.50,0.50,14.12,30.56,-2.3,-1.6,210.9,39.40,0.84,43.222217,-0.051911,12,1,8.10,441.10
318142,-0.61,0.31,-0.03,8.93,-4.87,5.43,1.3,-3.7,208.5,39.40,0.86,43.222217,-0.051935,12,1,8.10,441.10
318448,-0.68,-0.15,-0.50,-11.12,5.18,67.68,-0.0,-2.5,196.8,39.41,0.99,43.222217,-0.051935,12,1,8.10,441.10
318754,-0.09,-0.54,0.65,-5.25,-4.43,97.18,-0.2,-3.4,171.1,39.41,1.20,43.222217,-0.051935,12,1,8.10,441.00
319060,-1.34,0.72,0.86,-12.68,6.87,41.00,-0.6,-1.4,152.6,39.42,1.28,43.222217,-0.051935,12,1,8.10,440.89
319672,-0.67,0.22,-0.01,-11.43,6.62,12.68,-3.0,-4.9,140.0,39.42,1.63,43.222217,-0.051938,12,1,8.10,440.89
319978,-0.05,-0.12,0.55,-28.62,-8.25,-6.87,-2.1,-1.0,137.0,39.42,1.66,43.222217,-0.051938,12,1,8.10,440.79
320284,0.69,0.86,0.17,0.93,4.31,1.06,-4.7,3.8,136.8,39.42,1.62,43.222217,-0.051935,12,1,8.11,440.79
320590,0.37,0.05,-0.20,2.93,-4.87,3.00,-3.2,4.0,135.2,39.42,1.61,43.222217,-0.051935,12,1,8.11,440.79
320896,0.27,-0.00,-0.19,3.37,0.06,-6.37,-2.4,3.3,136.3,39.43,1.67,43.222217,-0.051935,12,1,8.11,440.79
321508,-0.19,-0.67,0.37,0.50,4.81,-39.12,-2.8,1.4,153.6,39.43,1.60,43.222217,-0.051938,12,1,8.10,441.00
321814,-0.25,0.20,-0.47,3.68,5.93,-40.56,-4.4,0.2,166.0,39.44,1.49,43.222217,-0.051938,12,1,8.10,441.10
322120,-0.61,1.01,-0.75,37.87,-11.18,-73.37,-0.3,0.0,181.6,39.44,1.45,43.222217,-0.051938,12,1,8.10,441.10
322732,-1.25,-0.61,0.50,-11.81,4.87,-33.25,-3.8,0.0,221.2,39.45,1.25,43.222217,-0.051947,12,1,8.10,441.29
323038,0.35,0.01,-1.29,10.93,-1.81,-20.56,-2.8,-0.8,229.5,39.46,1.09,43.222217,-0.051947,12,1,8.10,441.29
323344,0.05,-0.12,1.36,8.31,-5.37,8.00,-2.6,-3.7,232.7,39.46,1.07,43.222217,-0.051954,12,1,8.10,441.29
323650,-1.76,-0.81,2.00,-30.00,-28.50,7.25,0.8,-1.6,228.5,39.47,0.96,43.222217,-0.051954,12,1,8.10,441.20
323956,0.37,0.75,-0.30,0.43,1.43,9.93,-0.3,-0.8,225.8,39.47,0.98,43.222217,-0.051954,12,1,8.10,441.29
324568,1.37,-0.19,-0.93,9.93,4.06,19.12,-1.1,-2.4,220.0,39.48,1.11,43.222217,-0.051965,12,1,8.10,441.29
324874,-1.50,-0.00,-0.11,11.81,-11.81,19.12,1.3,-4.1,215.8,39.49,1.10,43.222217,-0.051965,12,1,8.10,441.20
325180,0.13,0.41,-1.50,-0.62,1.37,8.31,0.8,-1.7,210.8,39.49,1.11,43.222217,-0.051965,12,1,8.10,441.20
325486,-1.37,-0.18,0.25,9.87,11.50,3.56,0.8,-1.8,211.8,39.50,1.15,43.222217,-0.051980,12,1,8.11,441.29
325792,0.70,-0.09,-0.35,10.75,-11.12,1.18,-2.0,-3.8,212.1,39.50,1.16,43.222217,-0.051980,12,1,8.11,441.29
326098,-2.01,0.10,1.19,-7.56,-22.50,31.56,-1.1,-5.7,207.1,39.50,1.16,43.222217,-0.051980,12,1,8.11,441.29
326710,-1.36,0.20,0.12,-18.43,-8.06,-6.31,1.6,-3.6,206.0,39.51,1.18,43.222217,-0.051994,12,1,8.10,441.39
327016,0.44,-0.33,-0.25,6.43,8.93,8.43,-0.5,-4.5,205.7,39.52,1.29,43.222217,-0.051994,12,1,8.10,441.39
327322,-1.60,0.75,0.30,-9.56,-11.06,31.93,-1.3,-6.1,198.1,39.52,1.33,43.222209,-0.052009,12,1,8.10,441.50
327628,-0.36,0.20,-1.30,-0.75,-17.25,-6.06,0.9,-4.5,194.2,39.53,1.31,43.222209,-0.052009,12,1,8.10,441.50
327934,0.17,-0.40,-1.77,28.00,24.68,-12.62,0.4,-3.2,198.9,39.53,1.40,43.222209,-0.052009,12,1,8.10,441.50
328240,0.10,0.36,0.00,17.62,-0.31,20.75,-2.2,-4.5,200.0,39.53,1.31,43.222209,-0.052022,12,1,8.10,441.50
328546,-1.86,-0.15,0.45,-40.25,-25.75,28.87,0.3,-7.1,190.5,39.54,1.29,43.222209,-0.052022,12,1,8.10,441.50
328852,-0.27,0.98,0.52,-11.00,-30.75,-2.18,0.1,-3.0,186.9,39.54,1.33,43.222209,-0.052022,12,1,8.10,441.60
329158,-1.69,0.47,-0.68,36.00,31.93,-1.12,3.2,-4.1,188.4,39.54,1.38,43.222209,-0.052022,12,1,8.10,441.60
329464,0.86,0.55,-1.04,-14.43,-19.06,25.75,-1.1,-3.1,182.6,39.55,1.45,43.222202,-0.052035,12,1,8.11,441.60
329770,-2.25,0.09,1.07,0.56,-32.75,49.50,1.0,-6.1,173.0,39.55,1.33,43.222202,-0.052035,12,1,8.11,441.60
330076,-0.45,0.07,-1.25,-10.06,-2.18,4.37,0.8,-6.7,166.0,39.56,1.35,43.222202,-0.052035,12,1,8.11,441.70
330382,-0.67,-0.61,0.22,11.43,-13.25,-14.31,1.3,-4.6,170.5,39.56,1.45,43.222190,-0.052044,12,1,8.10,441.79
330688,0.93,0.10,0.81,-4.25,-5.56,-4.12,-2.3,-4.1,175.2,39.56,1.49,43.222190,-0.052044,12,1,8.10,441.79
330994,-1.37,0.50,-0.07,7.81,-14.93,46.06,-2.6,-9.0,169.5,39.56,1.45,43.222190,-0.052044,12,1,8.10,441.79
331300,-0.15,0.22,-1.49,-5.93,-7.31,4.43,2.5,-5.6,163.8,39.56,1.41,43.222183,-0.052053,12,1,8.10,441.79
331606,-1.45,-0.10,0.95,8.31,19.81,-15.18,-0.5,-2.0,169.1,39.57,1.45,43.222183,-0.052053,12,1,8.10,441.89
331912,0.73,0.30,-0.77,5.87,-2.00,20.31,-2.6,-3.6,166.3,39.57,1.48,43.222183,-0.052053,12,1,8.10,441.89
332218,-0.41,0.91,-0.98,32.37,-9.81,52.18,-2.0,-8.7,156.9,39.57,1.52,43.222183,-0.052053,12,1,8.10,441.89
332524,0.58,0.93,-1.98,3.43,-0.68,9.18,-0.1,-5.1,152.1,39.58,1.48,43.222175,-0.052061,12,1,8.10,442.00
332830,-0.98,-0.88,0.66,21.75,0.75,13.81,-3.1,-2.1,156.1,39.58,1.51,43.222175,-0.052061,12,1,8.10,442.00
333136,1.03,0.61,-0.70,-3.93,-14.18,19.37,-4.8,-3.0,152.9,39.58,1.50,43.222175,-0.052061,12,1,8.10,442.00
333442,-2.01,-0.18,1.42,3.81,4.68,27.81,-3.0,-6.0,146.0,39.59,1.44,43.222160,-0.052067,12,1,8.10,442.10
333748,0.01,1.34,-2.05,-2.18,-3.06,1.06,-2.6,-4.3,141.4,39.59,1.46,43.222160,-0.052067,12,1,8.10,442.20
334054,-0.50,0.19,2.13,-10.50,-0.93,-21.62,-1.5,-3.2,144.1,39.59,1.53,43.222160,-0.052067,12,1,8.10,442.10
334666,1.00,0.44,0.02,6.43,-4.93,20.06,-4.3,-6.1,147.8,39.60,1.50,43.222152,-0.052070,12,1,8.10,442.29
334972,-1.10,1.12,-0.63,2.68,8.43,33.43,-4.9,-7.3,138.1,39.60,1.42,43.222152,-0.052070,12,1,8.10,442.20
335278,-0.52,0.41,-0.90,-0.75,-3.37,2.50,0.6,-5.6,133.0,39.61,1.43,43.222152,-0.052070,12,1,8.10,442.29
335584,1.03,1.29,-0.91,-21.93,-27.56,-16.31,4.6,-3.6,137.5,39.61,1.58,43.222145,-0.052071,12,1,8.10,442.29
335890,0.00,0.15,-0.40,24.06,5.87,21.18,-0.1,-1.9,137.6,39.61,1.66,43.222145,-0.052071,12,1,8.10,442.29
336196,0.95,-0.00,-0.07,7.06,-2.93,41.50,-2.7,-6.0,127.7,39.62,1.67,43.222145,-0.052071,12,1,8.10,442.29
336502,-0.72,-0.63,0.37,-22.75,10.56,22.06,-6.3,-7.8,118.1,39.62,1.67,43.222145,-0.052069,12,1,8.10,442.29
336808,0.51,0.60,-1.80,-0.37,-5.43,-15.50,-4.1,-5.1,117.1,39.62,1.61,43.222145,-0.052069,12,1,8.10,442.29
337114,-0.20,0.74,0.66,-6.12,-8.56,-46.50,-3.3,-2.6,128.0,39.63,1.61,43.222145,-0.052069,12,1,8.10,442.39
337726,-0.50,0.55,-0.67,35.18,27.75,32.31,-6.2,-3.3,141.6,39.63,1.54,43.222133,-0.052067,12,1,8.10,442.39
338032,-0.56,0.46,-0.40,-14.25,-2.68,64.25,-4.2,-10.9,124.5,39.64,1.56,43.222133,-0.052067,12,1,8.10,442.39
338644,-0.30,-0.13,0.86,13.50,16.31,-5.37,-5.5,-8.3,114.6,39.64,1.69,43.222126,-0.052066,12,1,8.10,442.39
338950,0.25,0.28,-0.25,1.93,4.25,-1.93,-4.1,-8.8,114.0,39.65,1.63,43.222126,-0.052066,12,1,8.10,442.50
339256,0.38,0.20,-0.35,-6.37,1.50,-0.31,-4.1,-9.1,114.9,39.65,1.54,43.222126,-0.052066,12,1,8.10,442.60
339562,0.01,0.02,0.22,-3.06,3.00,-5.62,-4.0,-7.6,116.3,39.66,1.51,43.222126,-0.052063,12,1,8.10,442.60
339868,0.60,0.15,-0.35,-2.06,-2.12,-7.43,-5.1,-7.1,116.4,39.66,1.40,43.222126,-0.052063,12,1,8.10,442.70
340174,-0.45,0.20,-0.40,-12.06,33.12,-29.18,-6.8,-5.8,121.7,39.67,1.40,43.222126,-0.052063,12,1,8.10,442.70
340480,0.30,0.95,0.12,3.56,5.06,50.00,-15.1,-5.4,116.2,39.67,1.44,43.222126,-0.052062,12,1,8.10,442.79
340786,1.17,0.13,-0.46,-10.68,52.31,41.75,-28.6,-11.8,99.4,39.68,1.44,43.222126,-0.052062,12,1,8.10,442.89
341398,-1.12,0.54,-0.15,26.56,74.68,31.50,-50.8,-38.8,82.5,39.69,1.34,43.222126,-0.052062,12,1,8.10,443.00
341704,0.25,0.93,-1.04,-5.31,2.25,11.12,-53.7,-42.5,69.1,39.70,1.38,43.222126,-0.052062,12,1,8.10,443.10
342316,0.43,-0.34,0.36,0.00,-8.62,13.12,-50.3,-44.0,53.6,39.71,1.47,43.222126,-0.052062,12,1,8.10,443.20
342928,-0.25,-0.27,0.70,11.62,-36.31,-27.87,-41.8,-30.8,76.8,39.72,1.45,43.222126,-0.052062,12,1,8.10,443.20
343234,0.23,-0.52,0.81,-10.93,-14.37,-13.12,-34.9,-22.5,83.7,39.72,1.41,43.222126,-0.052062,12,1,8.10,443.20
343540,0.20,0.44,-0.56,-0.75,-12.68,-15.31,-35.7,-23.1,87.0,39.73,1.41,43.222126,-0.052060,12,1,8.10,443.20
343846,-0.01,-0.00,0.45,-15.87,-13.68,-4.43,-34.3,-22.1,89.0,39.73,1.42,43.222126,-0.052060,12,1,8.10,443.20
344458,0.27,0.15,0.20,15.81,14.56,4.12,-34.1,-24.0,93.3,39.75,1.40,43.222126,-0.052060,12,1,8.10,443.20
344764,0.15,-0.19,0.37,6.31,-2.12,-10.62,-35.4,-24.4,95.6,39.75,1.51,43.222126,-0.052060,12,1,8.10,443.20
345070,0.34,0.40,-0.72,8.00,-1.06,-15.31,-36.0,-24.1,101.0,39.75,1.57,43.222126,-0.052060,12,1,8.10,443.10
345376,0.28,0.38,-0.41,7.18,4.50,-0.75,-35.6,-22.4,106.1,39.76,1.58,43.222126,-0.052060,12,1,8.10,443.10
345988,0.11,0.10,-0.03,2.75,0.68,-0.37,-34.0,-22.2,109.1,39.77,1.57,43.222126,-0.052061,12,1,8.10,443.00
346294,0.43,0.05,-0.09,-7.25,2.87,3.81,-34.9,-21.6,108.5,39.77,1.57,43.222126,-0.052061,12,1,8.10,443.00
346906,0.11,-0.30,-0.15,-2.06,-6.37,0.00,-34.4,-22.7,107.7,39.79,1.41,43.222126,-0.052061,12,1,8.10,442.89
347212,0.05,0.44,-0.38,-10.43,7.75,12.75,-36.2,-23.6,106.6,39.79,1.52,43.222126,-0.052061,12,1,8.10,443.00
347518,0.68,-0.02,0.12,-21.12,0.25,15.93,-34.7,-23.7,99.1,39.80,1.46,43.222126,-0.052063,12,1,8.10,442.89
348130,-2.73,-0.25,0.70,20.62,-19.31,-43.00,-34.8,-20.0,111.0,39.81,1.41,43.222126,-0.052063,12,1,8.10,442.89
348436,-0.11,-0.40,-0.58,27.75,-6.56,-27.37,-32.8,-23.0,118.1,39.81,1.48,43.222126,-0.052062,12,1,8.10,443.00
349048,-0.93,-0.51,0.18,-25.12,18.93,33.06,-37.0,-19.6,115.3,39.82,1.47,43.222126,-0.052062,12,1,8.10,442.89
349354,0.15,0.98,-0.05,-10.62,0.81,25.87,-35.2,-22.0,101.8,39.83,1.39,43.222126,-0.052062,12,1,8.10,442.89
349660,0.15,0.65,-0.01,4.31,-9.93,-6.50,-32.7,-21.0,97.4,39.84,1.41,43.222126,-0.052060,12,1,8.10,442.89
350272,0.55,0.18,0.11,4.31,-10.68,-19.06,-32.1,-20.6,107.8,39.85,1.45,43.222126,-0.052060,12,1,8.10,442.89
350578,-0.61,-0.18,-0.52,9.81,-2.00,-10.81,-31.8,-19.8,113.0,39.85,1.51,43.222126,-0.052057,12,1,8.10,443.00
351190,0.95,-0.17,-1.03,1.87,-4.06,-0.93,-32.5,-20.9,115.6,39.86,1.53,43.222126,-0.052057,12,1,8.10,443.00
351496,-0.05,-0.27,0.18,2.31,-10.37,-7.31,-31.6,-21.1,114.3,39.87,1.45,43.222126,-0.052055,12,1,8.10,443.00
352108,0.67,0.12,-0.28,12.00,17.00,2.93,-28.0,-18.1,120.4,39.88,1.60,43.222126,-0.052055,12,1,8.10,443.10
352414,0.00,0.30,-0.27,1.25,2.62,5.93,-27.8,-17.5,120.9,39.88,1.56,43.222126,-0.052055,12,1,8.10,443.00
352720,0.20,0.00,-0.40,4.37,8.43,4.68,-27.3,-17.8,120.6,39.89,1.51,43.222126,-0.052053,12,1,8.10,443.10
353332,-0.11,-0.07,-0.11,-1.68,4.25,9.56,-27.1,-18.0,116.8,39.90,1.51,43.222126,-0.052053,12,1,8.10,443.10
353638,0.52,-0.15,0.45,3.75,3.12,-5.75,-26.6,-17.8,116.1,39.90,1.51,43.222126,-0.052051,12,1,8.10,443.20
354250,0.05,-0.07,-0.05,-7.75,-1.62,-1.50,-27.1,-18.8,120.6,39.91,1.44,43.222126,-0.052051,12,1,8.10,443.20
354556,0.00,-0.07,0.13,-3.37,-4.81,-3.62,-27.8,-17.9,121.5,39.92,1.46,43.222126,-0.052049,12,1,8.10,443.20
354862,0.11,0.20,-0.20,0.87,14.56,-1.50,-28.4,-18.0,121.6,39.93,1.48,43.222126,-0.052049,12,1,8.10,443.29
355474,-0.07,-0.05,-0.01,0.12,1.25,1.31,-28.1,-17.2,119.8,39.94,1.46,43.222126,-0.052049,12,1,8.10,443.29
355780,-0.19,0.11,-0.12,2.37,2.31,5.43,-27.8,-17.5,119.3,39.94,1.42,43.222118,-0.052048,12,1,8.10,443.39
356086,0.37,0.13,0.05,4.93,-1.12,4.18,-27.0,-17.4,118.3,39.95,1.45,43.222118,-0.052048,12,1,8.10,443.39
356392,0.03,-0.01,-0.09,1.93,8.50,0.43,-27.5,-17.9,117.1,39.95,1.45,43.222118,-0.052048,12,1,8.10,443.50
357004,0.27,-0.12,-0.03,-7.68,5.56,14.18,-28.5,-19.0,109.0,39.96,1.38,43.222118,-0.052048,12,1,8.10,443.60
357310,-0.07,-0.03,0.05,-24.12,3.87,16.62,-29.6,-19.2,103.6,39.97,1.43,43.222118,-0.052048,12,1,8.10,443.60
357922,-0.10,0.37,0.00,1.06,-6.75,-6.81,-29.5,-17.5,96.9,39.98,1.41,43.222118,-0.052047,12,1,8.10,443.60
358228,0.33,0.05,-0.28,15.75,2.87,-23.75,-30.2,-17.1,101.6,39.99,1.39,43.222118,-0.052047,12,1,8.10,443.70
358840,0.46,-0.20,0.47,2.00,-5.75,0.81,-34.1,-17.2,112.4,40.00,1.47,43.222118,-0.052045,12,1,8.10,443.60
359146,0.20,0.37,-0.35,5.62,18.93,8.68,-33.5,-16.1,112.6,40.00,1.43,43.222118,-0.052045,12,1,8.10,443.60
359452,-0.50,-0.70,0.25,-31.43,0.56,28.81,-34.1,-16.8,105.6,40.01,1.35,43.222118,-0.052045,12,1,8.10,443.70
360064,0.10,-0.10,-0.66,20.75,20.50,-2.75,-27.7,-8.9,96.6,40.02,1.51,43.222118,-0.052044,12,1,8.10,444.00
360370,0.75,-0.17,-0.10,3.37,-15.18,-12.25,-26.1,-10.5,101.0,40.02,1.62,43.222118,-0.052044,12,1,8.10,444.00
360676,-0.12,0.15,0.22,19.00,-33.56,-33.81,-20.3,-10.3,110.7,40.03,1.66,43.222118,-0.052042,12,1,8.10,443.79
360982,1.07,-0.54,-0.30,56.31,5.00,-34.75,-10.2,-10.5,122.3,40.03,1.70,43.222118,-0.052042,12,1,8.10,443.60
361594,-0.22,-0.37,0.31,3.25,-7.68,0.37,-18.1,-20.8,136.4,40.05,1.76,43.222118,-0.052045,12,1,8.10,443.20
361900,-0.23,-0.09,0.15,4.37,10.25,7.50,-17.1,-23.2,136.3,40.05,1.78,43.222118,-0.052045,12,1,8.10,443.10
362512,0.61,0.09,-1.07,21.31,7.56,7.00,-14.8,-26.3,133.5,40.06,1.84,43.222118,-0.052045,12,1,8.10,442.79
363124,-0.07,0.20,-0.54,-13.81,14.56,4.56,-16.0,-22.5,133.5,40.08,1.90,43.222118,-0.052047,12,1,8.10,442.70
363430,-0.28,-0.23,0.18,-16.25,5.31,-2.00,-18.7,-19.7,132.3,40.08,1.86,43.222118,-0.052047,12,1,8.10,442.60
363736,0.25,-0.55,0.17,6.87,12.12,1.12,-19.3,-17.6,131.0,40.09,1.87,43.222118,-0.052047,12,1,8.10,442.50
364042,-0.34,-0.23,0.20,2.62,13.31,4.50,-21.5,-19.5,129.1,40.09,1.89,43.222118,-0.052047,12,1,8.10,442.39
364348,0.50,-0.01,-0.31,-13.00,16.25,22.18,-21.3,-19.8,125.5,40.10,1.87,43.222118,-0.052047,12,1,8.10,442.29
364960,1.15,-0.63,0.66,8.81,-2.62,-4.06,-19.8,-16.6,122.8,40.11,1.87,43.222118,-0.052048,12,1,8.10,442.10
365266,-0.35,-0.25,0.54,-0.31,-2.56,3.87,-19.7,-17.8,124.8,40.12,1.87,43.222118,-0.052048,12,1,8.10,442.00
365572,-0.10,-0.09,-0.38,-1.12,23.50,10.06,-23.8,-19.1,122.5,40.12,1.98,43.222118,-0.052048,12,1,8.10,441.89
366184,0.41,0.34,-0.90,1.81,23.87,26.75,-31.5,-22.6,107.8,40.13,1.95,43.222118,-0.052047,12,1,8.09,441.60
366796,-0.35,-0.15,-0.70,-29.43,-7.12,-4.56,-38.6,-30.1,85.2,40.15,1.92,43.222118,-0.052048,12,1,8.10,441.20
367102,0.28,-0.11,1.08,9.12,-5.37,13.37,-36.6,-27.0,79.3,40.15,1.89,43.222118,-0.052048,12,1,8.10,441.00
367408,0.74,-0.07,-0.34,-18.18,-3.81,18.25,-34.3,-28.1,73.0,40.15,1.86,43.222118,-0.052048,12,1,8.10,440.89
367714,0.40,0.22,0.03,7.81,33.12,30.81,-31.7,-27.9,67.0,40.16,1.81,43.222118,-0.052049,12,1,8.10,440.70
368326,-0.49,0.38,0.61,-2.62,-36.18,-14.93,-29.6,-25.8,65.1,40.17,1.67,43.222118,-0.052049,12,1,8.10,440.60
368632,-0.12,0.00,-0.09,41.00,4.06,-30.87,-29.9,-27.4,73.1,40.18,1.60,43.222118,-0.052050,12,1,8.10,440.50
368938,0.34,-0.07,-0.35,5.25,-4.43,-22.00,-30.0,-27.8,88.5,40.19,1.53,43.222118,-0.052050,12,1,8.10,440.50
369244,-0.54,0.22,-0.25,9.37,-10.62,-7.12,-29.1,-25.0,94.2,40.19,1.54,43.222118,-0.052050,12,1,8.10,440.39
369856,-0.25,0.11,-0.58,20.00,-7.18,-8.12,-23.8,-22.1,100.8,40.20,1.61,43.222118,-0.052050,12,1,8.10,440.10
370162,0.74,0.25,0.63,-26.18,-33.18,-5.12,-20.0,-19.9,101.3,40.21,1.54,43.222118,-0.052050,12,1,8.10,440.00
370774,0.20,-0.45,0.00,12.37,3.25,-17.25,-19.8,-20.0,113.1,40.22,1.47,43.222118,-0.052053,12,1,8.09,439.70
371080,0.27,-0.07,0.11,-2.25,-1.93,-9.81,-20.0,-20.0,118.7,40.23,1.49,43.222118,-0.052053,12,1,8.09,439.50
371386,0.33,0.10,-0.45,-6.81,-0.37,4.31,-20.0,-20.8,118.0,40.23,1.49,43.222118,-0.052053,12,1,8.09,439.39
371998,0.34,-0.05,0.23,-2.25,3.31,-7.43,-20.5,-20.0,116.2,40.25,1.50,43.222118,-0.052056,12,1,8.10,439.29
372304,-0.05,0.15,0.00,6.43,3.00,-8.12,-21.0,-18.9,119.3,40.25,1.42,43.222118,-0.052056,12,1,8.10,439.20
372610,-0.11,0.00,0.01,0.93,-1.00,2.00,-20.8,-19.1,120.1,40.26,1.45,43.222118,-0.052056,12,1,8.10,439.10
372916,0.18,0.17,-0.22,-0.18,-4.18,-3.56,-20.8,-20.5,119.0,40.26,1.50,43.222126,-0.052057,12,1,8.10,439.10
373528,0.05,0.25,-0.54,-4.00,5.00,2.43,-20.2,-20.3,117.4,40.28,1.52,43.222126,-0.052057,12,1,8.10,438.89
373834,0.30,-0.44,0.17,-13.43,-0.50,6.81,-21.3,-19.8,115.6,40.28,1.51,43.222126,-0.052059,12,1,8.10,438.79
374446,0.05,0.05,0.00,2.37,-7.25,-1.25,-21.1,-20.2,117.1,40.29,1.57,43.222126,-0.052059,12,1,8.10,438.60
375058,0.20,0.01,-0.07,2.87,-1.68,-4.43,-20.8,-20.9,118.1,40.30,1.57,43.222126,-0.052060,12,1,8.10,438.50
375364,0.02,-0.05,0.00,1.87,-0.25,-0.68,-20.9,-21.4,119.2,40.31,1.57,43.222126,-0.052060,12,1,8.10,438.39
375670,0.15,-0.22,0.11,-2.68,3.50,1.06,-20.5,-21.3,119.0,40.31,1.48,43.222126,-0.052060,12,1,8.10,438.39
375976,0.28,-0.02,-0.05,-1.37,-0.18,1.43,-20.5,-20.8,118.3,40.32,1.42,43.222126,-0.052061,12,1,8.10,438.39
376588,0.11,-0.13,0.05,0.43,-2.00,-1.31,-19.8,-19.9,117.2,40.33,1.54,43.222126,-0.052061,12,1,8.10,438.29
376894,0.03,0.01,-0.05,3.75,1.06,-4.68,-20.1,-19.8,118.1,40.34,1.60,43.222126,-0.052062,12,1,8.09,438.29
377200,0.05,-0.05,-0.07,-1.18,1.75,0.06,-20.8,-20.0,118.6,40.34,1.58,43.222126,-0.052062,12,1,8.09,438.29
377506,0.40,-0.20,-0.11,-1.87,-6.81,-0.37,-20.7,-20.1,118.5,40.35,1.54,43.222126,-0.052062,12,1,8.09,438.20
378118,0.00,-0.15,-0.09,-1.56,0.37,5.56,-21.0,-19.3,118.3,40.36,1.50,43.222126,-0.052062,12,1,8.10,438.20
378730,0.05,-0.13,0.10,0.31,-1.87,-0.56,-20.5,-19.4,116.8,40.38,1.76,43.222126,-0.052064,12,1,8.10,438.10
379036,0.09,-0.01,-0.07,-1.25,2.75,0.68,-19.9,-18.9,116.9,40.38,1.67,43.222126,-0.052064,12,1,8.10,438.10
379342,0.25,-0.05,0.05,-3.31,1.00,4.00,-19.5,-18.0,116.1,40.38,1.68,43.222126,-0.052064,12,1,8.10,438.10
379648,-0.47,0.18,-0.37,-6.37,3.93,-0.62,-27.8,-20.1,110.9,40.39,1.73,43.222126,-0.052064,12,1,8.10,438.00
380260,-0.65,-0.23,-0.45,-14.37,53.93,-24.50,-31.5,5.7,122.6,40.40,1.64,43.222126,-0.052064,12,1,8.10,437.89
380566,1.00,0.02,-0.93,12.12,12.75,-50.68,-38.5,10.8,128.1,40.41,1.68,43.222126,-0.052064,12,1,8.10,437.79
380872,-0.15,-0.45,2.21,-41.50,-1.93,-23.00,-42.4,26.1,136.3,40.41,2.34,43.222126,-0.052065,12,1,8.10,437.70
381178,-0.91,0.25,1.41,34.31,10.25,10.43,-47.8,29.3,144.0,40.40,2.63,43.222126,-0.052065,12,1,8.10,437.60
381790,-0.75,0.18,-0.55,14.62,-11.37,6.25,-18.5,-3.1,152.6,40.37,3.14,43.222126,-0.052067,12,1,8.10,437.60
382096,0.00,0.35,-1.60,-48.62,-24.00,16.62,-14.2,-1.6,149.4,40.38,2.54,43.222126,-0.052067,12,1,8.10,437.60
382708,-0.35,-0.73,-0.31,2.31,-1.37,11.00,-9.9,3.5,140.7,40.39,1.81,43.222126,-0.052067,12,1,8.10,437.50
383014,0.81,0.22,-0.28,-1.37,2.00,-5.62,-11.8,3.1,141.8,40.40,1.70,43.222126,-0.052066,12,1,8.10,437.50
383320,0.07,0.68,-1.26,-2.81,8.43,17.50,-14.5,1.5,140.5,40.40,1.71,43.222126,-0.052066,12,1,8.10,437.50
383932,0.31,0.50,-0.01,-16.25,-2.25,-7.43,-2.3,7.6,125.8,40.41,1.49,43.222126,-0.052065,12,1,8.10,437.39
384238,0.25,0.18,0.11,21.62,-28.06,-29.62,-0.2,8.4,131.0,40.42,1.45,43.222126,-0.052065,12,1,8.10,437.39
384544,-0.22,-0.86,0.40,-3.62,6.00,-23.12,2.1,8.5,139.6,40.42,1.51,43.222126,-0.052065,12,1,8.10,437.39
384850,0.15,-0.46,-0.10,7.37,-2.06,-11.62,2.3,5.8,145.6,40.43,1.52,43.222126,-0.052066,12,1,8.10,437.39
385156,-0.17,-0.40,0.07,-1.50,-5.87,-14.06,1.6,4.6,148.5,40.44,1.49,43.222126,-0.052066,12,1,8.10,437.29
385462,0.05,-0.38,-0.31,-10.87,6.81,-15.12,0.6,4.9,152.0,40.44,1.46,43.222126,-0.052066,12,1,8.10,437.29
385768,0.05,-0.50,0.37,7.12,3.62,-5.93,-0.8,4.6,153.7,40.45,1.48,43.222126,-0.052066,12,1,8.10,437.29
386074,0.49,0.61,1.36,-3.12,32.87,14.50,-2.1,3.4,153.9,40.46,1.49,43.222126,-0.052065,12,1,8.09,437.29
386380,1.82,0.66,-2.09,43.06,78.12,36.18,-11.4,-1.8,148.5,40.46,1.46,43.222126,-0.052065,12,1,8.09,437.29
386686,1.33,-1.19,1.65,101.25,38.18,-31.75,-17.0,-23.1,158.4,40.47,1.46,43.222126,-0.052065,12,1,8.09,437.29
386992,-1.53,-2.46,-0.09,-21.37,4.12,-28.81,-30.6,-33.2,174.5,40.48,1.56,43.222126,-0.052065,12,1,8.10,437.20
387604,-0.35,0.41,0.18,45.06,9.68,-9.50,-34.6,-9.6,194.1,40.49,1.50,43.222126,-0.052065,12,1,8.10,437.00
388216,-0.05,-0.03,0.12,4.00,8.31,-1.50,-44.4,-19.3,213.1,40.50,1.33,43.222118,-0.052067,12,1,8.10,437.00
388522,0.57,-0.22,0.23,-50.81,-22.31,-1.62,-36.8,-17.5,211.4,40.50,1.32,43.222118,-0.052067,12,1,8.10,436.79
388828,0.47,0.00,0.33,-3.00,-4.18,-6.00,-38.7,-18.2,210.4,40.51,1.33,43.222118,-0.052070,12,1,8.10,436.79
389134,0.00,-0.34,0.81,13.68,-15.25,-5.62,-34.9,-15.2,214.3,40.52,1.34,43.222118,-0.052070,12,1,8.10,436.70
389440,0.55,0.83,-0.23,-3.56,-52.68,-11.18,-33.0,-11.9,219.9,40.52,1.61,43.222118,-0.052070,12,1,8.10,436.70
390052,0.66,-0.05,-0.75,-1.93,-81.68,38.18,-10.9,-3.2,216.2,40.54,1.34,43.222118,-0.052072,12,1,8.10,436.89
390358,1.08,0.86,-0.49,-50.75,-57.50,39.12,4.3,6.7,204.7,40.54,1.32,43.222118,-0.052072,12,1,8.10,436.79
390664,0.44,-1.36,1.17,-7.00,-44.62,71.75,6.6,21.3,182.8,40.54,1.60,43.222118,-0.052072,12,1,8.10,436.79
390970,-0.74,-0.95,0.86,-11.62,53.12,38.87,2.7,22.8,162.6,40.53,2.04,43.222118,-0.052070,12,1,8.09,436.79
391276,0.31,0.05,0.63,-8.06,30.81,87.25,-12.0,25.2,145.0,40.53,2.07,43.222118,-0.052070,12,1,8.09,436.70
391582,-0.15,-0.20,-0.50,68.43,-82.87,3.68,-13.2,21.4,128.8,40.53,1.97,43.222118,-0.052070,12,1,8.09,436.79
391888,-1.00,-1.38,-0.30,-23.50,58.93,56.06,-6.2,6.8,123.6,40.53,2.09,43.222118,-0.052071,12,1,8.10,436.79
392500,-0.50,-0.93,0.95,-31.06,0.62,-10.00,-3.3,9.5,116.8,40.54,1.96,43.222118,-0.052071,12,1,8.10,436.89
392806,-0.05,0.05,0.65,-5.18,38.43,-4.37,-6.5,15.1,116.5,40.54,1.98,43.222118,-0.052071,12,1,8.10,437.00
393418,0.30,-0.09,-0.35,-41.62,-12.18,-30.06,-6.1,15.4,117.5,40.54,2.13,43.222118,-0.052071,12,1,8.09,437.10
393724,0.98,0.11,0.03,8.56,-61.50,-59.18,11.8,19.3,126.3,40.54,2.17,43.222118,-0.052071,12,1,8.09,437.00
394030,0.12,0.20,-0.33,13.06,-8.25,6.18,16.9,17.7,128.1,40.55,2.02,43.222118,-0.052069,12,1,8.10,436.89
394336,0.45,0.66,-0.80,-15.25,22.75,-5.68,12.3,14.3,125.4,40.55,1.91,43.222118,-0.052069,12,1,8.10,437.00
394948,0.15,0.10,0.02,2.50,-15.68,5.93,-7.5,12.0,116.6,40.56,1.87,43.222118,-0.052065,12,1,8.10,436.70
395254,0.80,0.36,-0.36,-22.25,33.18,15.50,-10.3,11.5,116.1,40.56,1.88,43.222118,-0.052065,12,1,8.10,436.70
395560,0.05,-0.50,0.25,-24.37,4.75,8.18,-15.1,15.3,115.1,40.57,1.77,43.222118,-0.052065,12,1,8.10,436.60
395866,0.68,-0.17,-0.40,-5.81,-2.06,-1.50,-15.5,16.1,115.8,40.57,1.72,43.222118,-0.052065,12,1,8.10,436.60
396172,0.10,-0.34,0.33,13.06,-33.62,-15.12,-13.1,15.5,117.6,40.58,1.71,43.222118,-0.052061,12,1,8.09,436.60
396478,0.07,-0.83,0.79,-12.06,1.31,0.12,-4.8,15.3,116.5,40.58,1.77,43.222118,-0.052061,12,1,8.09,436.70
397090,0.12,0.07,-0.15,1.81,35.62,-0.12,-10.3,16.0,117.6,40.59,1.66,43.222118,-0.052059,12,1,8.10,436.60
397396,0.40,-0.01,0.02,6.75,2.18,1.62,-13.3,19.1,118.7,40.59,1.69,43.222118,-0.052059,12,1,8.10,436.60
397702,0.36,-0.11,-0.27,-8.18,-7.00,-0.06,-12.9,18.8,119.8,40.60,1.63,43.222118,-0.052059,12,1,8.10,436.50
398008,-0.10,-0.25,0.34,1.12,-11.93,-10.68,-11.9,17.7,120.1,40.61,1.65,43.222118,-0.052055,12,1,8.09,436.50
398620,1.54,0.22,-1.12,5.18,23.87,-16.87,-10.6,15.5,126.3,40.61,1.74,43.222118,-0.052055,12,1,8.09,436.60
399232,-0.69,0.28,0.07,-4.12,-12.87,-24.12,-11.9,9.1,160.6,40.62,1.66,43.222118,-0.052052,12,1,8.10,436.50
399538,1.21,-0.54,-0.60,-9.93,-1.50,30.06,-12.8,7.6,158.4,40.62,1.77,43.222118,-0.052052,12,1,8.10,436.39
399844,0.15,-0.70,-0.11,7.12,-45.93,-13.00,-11.3,-0.3,156.3,40.63,1.68,43.222118,-0.052052,12,1,8.10,436.50
400150,0.46,0.50,-1.58,-12.43,-3.37,6.25,-6.4,-2.1,155.0,40.63,1.71,43.222118,-0.052049,12,1,8.09,436.50
400456,0.56,-0.25,0.11,14.68,7.50,9.50,-4.4,-2.6,152.1,40.64,1.63,43.222118,-0.052049,12,1,8.09,436.50
400762,0.00,-0.81,0.44,-5.93,3.62,-8.50,-4.3,-2.0,151.5,40.64,1.63,43.222118,-0.052049,12,1,8.09,436.60
401068,0.79,-0.22,-0.66,-21.37,-2.93,-10.81,-3.1,-2.9,150.8,40.64,1.57,43.222110,-0.052048,12,1,8.10,436.60
401374,0.00,-0.34,-0.69,12.75,15.50,-31.68,-1.4,-3.2,154.5,40.65,1.50,43.222110,-0.052048,12,1,8.10,436.70
401986,0.61,-0.31,-0.66,32.25,8.12,19.37,-2.0,-1.2,153.5,40.65,2.02,43.222110,-0.052047,12,1,8.10,436.70
402598,0.36,-0.49,-0.44,-28.62,-1.37,-15.31,-4.6,-2.9,151.4,40.64,2.04,43.222110,-0.052047,12,1,8.10,436.70
402904,-0.22,-0.60,-0.40,-24.56,2.75,-15.68,-1.8,-0.1,152.3,40.65,1.96,43.222110,-0.052047,12,1,8.10,436.60
403210,0.02,-0.22,0.49,-0.87,-8.31,-1.62,-5.4,2.0,152.6,40.65,2.02,43.222110,-0.052045,12,1,8.10,436.50
403516,0.41,0.07,-0.03,5.68,7.56,2.93,-6.3,3.0,154.1,40.66,1.98,43.222110,-0.052045,12,1,8.10,436.29
403822,0.27,-0.20,-0.02,26.93,-16.56,-16.56,-5.8,3.3,156.2,40.66,1.92,43.222110,-0.052045,12,1,8.10,436.29
404128,0.45,-0.61,0.31,0.25,-4.12,-0.06,-4.2,3.3,156.5,40.66,1.88,43.222110,-0.052043,12,1,8.10,436.39
404434,0.33,-0.22,0.00,6.25,3.18,-6.68,-5.3,1.8,157.6,40.67,1.85,43.222110,-0.052043,12,1,8.10,436.39
404740,0.25,-0.05,-0.13,-0.56,-6.12,-6.62,-4.2,0.8,160.1,40.68,1.80,43.222110,-0.052043,12,1,8.10,436.39
405352,0.40,0.07,0.05,10.12,5.06,1.56,-1.8,0.6,157.0,40.68,1.77,43.222118,-0.052041,12,1,8.10,436.39
405658,0.02,-0.18,-0.09,4.93,1.12,3.06,-3.0,0.8,156.6,40.68,1.77,43.222118,-0.052041,12,1,8.10,436.29
405964,0.93,0.03,0.20,20.25,17.18,8.31,-4.8,0.0,156.1,40.69,1.77,43.222118,-0.052041,12,1,8.10,436.00
406270,-0.22,0.00,0.52,9.18,-13.00,-11.87,-10.0,1.5,154.8,40.69,1.73,43.222110,-0.052039,12,1,8.10,435.89
406576,0.03,-0.11,-0.25,-5.56,-6.00,0.68,-10.0,1.1,155.0,40.70,1.68,43.222110,-0.052039,12,1,8.10,436.00
407188,1.41,-0.57,0.03,16.06,-4.18,6.18,-9.5,0.6,154.4,40.71,1.69,43.222118,-0.052041,12,1,8.09,435.89
407494,0.49,-0.37,0.33,-5.81,-1.87,-2.18,-9.3,-1.0,154.3,40.71,1.68,43.222118,-0.052041,12,1,8.09,436.10
407800,0.27,0.22,0.11,11.18,-2.31,1.87,-8.4,-0.1,153.6,40.72,1.65,43.222118,-0.052041,12,1,8.09,436.20
408106,-0.43,-0.60,0.13,-19.00,-5.12,-4.56,-7.5,0.6,153.3,40.73,1.65,43.222118,-0.052043,12,1,8.09,436.29
408412,1.20,0.07,0.77,22.87,0.06,5.81,-7.5,2.0,154.0,40.73,1.64,43.222118,-0.052043,12,1,8.09,436.39
408718,-0.37,-0.36,-0.05,-9.81,-13.75,2.18,-7.3,-0.3,153.8,40.74,1.63,43.222118,-0.052043,12,1,8.09,436.60
409330,0.37,-0.17,-0.23,7.62,-4.93,3.12,-6.2,1.1,153.0,40.75,1.59,43.222126,-0.052043,12,1,8.10,436.60
409636,0.45,0.30,0.07,-7.18,-3.75,5.25,-6.3,-0.7,150.6,40.75,1.57,43.222126,-0.052043,12,1,8.10,436.70
409942,0.31,0.72,-0.90,-11.56,-5.87,-23.37,-6.3,0.7,151.5,40.76,1.57,43.222126,-0.052043,12,1,8.10,436.89
410248,0.15,0.13,0.05,11.87,-4.31,0.00,-7.1,4.3,154.2,40.76,1.52,43.222126,-0.052041,12,1,8.10,436.89
410554,0.12,0.20,-0.17,6.18,5.81,0.62,-7.3,4.5,154.1,40.77,1.52,43.222126,-0.052041,12,1,8.10,437.00
410860,0.02,0.11,-0.18,-13.68,-6.75,0.68,-7.3,3.6,154.3,40.77,1.57,43.222126,-0.052041,12,1,8.10,437.20
411472,0.13,-0.07,-0.11,10.37,3.43,-0.25,-6.3,4.0,153.8,40.78,1.61,43.222133,-0.052040,12,1,8.10,437.39
411778,-0.15,0.30,-0.20,10.25,-9.87,-19.37,-4.5,2.2,157.5,40.79,1.61,43.222133,-0.052040,12,1,8.10,437.50
412084,0.25,-0.20,-0.13,-15.37,9.06,-39.68,-5.5,0.8,168.5,40.80,1.63,43.222133,-0.052040,12,1,8.10,437.70
412390,0.00,0.03,-0.91,28.75,-23.50,-16.87,-4.0,4.1,178.1,40.80,1.60,43.222133,-0.052040,12,1,8.10,437.70
412696,0.63,-0.01,0.25,4.93,-7.06,-3.68,0.5,0.0,181.3,40.81,1.58,43.222133,-0.052040,12,1,8.10,437.60
413002,0.75,0.37,0.46,13.25,32.50,-32.50,-3.3,-3.6,185.0,40.81,1.60,43.222133,-0.052040,12,1,8.10,437.60
413308,-0.34,-0.35,-0.70,-18.68,-16.12,-8.81,-4.8,0.1,193.0,40.82,1.58,43.222133,-0.052040,12,1,8.10,437.60
413614,0.70,-0.19,0.07,-5.37,2.18,3.06,-2.8,1.5,193.5,40.82,1.57,43.222133,-0.052040,12,1,8.10,437.39
413920,0.11,-0.07,-0.03,-7.06,1.06,-2.06,-3.5,1.5,193.3,40.83,1.56,43.222133,-0.052040,12,1,8.10,437.39
414226,0.27,-0.00,-0.07,-0.12,3.75,-0.31,-4.0,2.3,193.5,40.83,1.55,43.222133,-0.052038,12,1,8.09,437.29
414532,-0.05,0.31,-0.05,8.93,3.31,12.81,-2.3,4.0,189.9,40.84,1.52,43.222133,-0.052038,12,1,8.09,437.29
414838,0.09,0.01,-0.07,-5.62,0.56,-5.75,-3.3,2.2,190.7,40.85,1.52,43.222133,-0.052038,12,1,8.09,437.29
415144,-0.18,-0.05,0.09,2.06,5.75,-14.37,-3.8,2.7,193.3,40.85,1.52,43.222133,-0.052035,12,1,8.09,437.39
415450,0.11,-0.05,0.00,3.37,-9.87,-2.18,-3.9,1.6,197.0,40.86,1.51,43.222133,-0.052035,12,1,8.09,437.29
416062,-0.54,0.65,0.22,23.31,5.81,14.81,-0.3,-3.6,191.3,40.87,1.50,43.222133,-0.052035,12,1,8.09,437.10
416368,0.61,-0.25,-0.60,22.00,17.31,12.56,-4.9,-8.8,188.5,40.87,1.52,43.222133,-0.052035,12,1,8.10,437.10
416674,0.43,-0.81,0.13,-4.62,8.00,5.43,-2.3,-8.5,186.0,40.88,1.51,43.222133,-0.052035,12,1,8.10,437.10
416980,0.55,0.09,-0.54,0.25,-5.93,0.62,-3.5,-5.4,183.0,40.89,1.52,43.222133,-0.052035,12,1,8.10,437.00
417286,-0.12,0.00,-0.34,-5.18,-8.43,-1.06,1.7,-3.2,183.0,40.89,1.51,43.222133,-0.052037,12,1,8.10,436.89
417592,-0.00,-0.41,0.15,-19.12,19.06,-26.12,0.3,-1.8,187.5,40.89,1.53,43.222133,-0.052037,12,1,8.10,436.79
417898,0.60,0.12,0.54,-22.06,0.00,-26.37,-1.1,-0.1,195.5,40.90,1.53,43.222133,-0.052037,12,1,8.10,436.89
418204,0.07,0.00,0.37,1.62,-1.62,-1.68,-1.7,-0.8,200.8,40.91,1.52,43.222133,-0.052036,12,1,8.09,437.10
418510,-0.61,-0.66,-0.61,2.56,-2.31,8.43,-0.6,0.9,204.0,40.91,1.51,43.222133,-0.052036,12,1,8.09,437.29
418816,0.22,0.05,-0.01,-2.68,-12.25,-14.81,1.3,1.1,204.8,40.92,1.49,43.222133,-0.052036,12,1,8.09,437.39
419122,0.27,1.39,0.00,8.25,5.87,30.25,0.9,0.8,205.1,40.92,1.50,43.222145,-0.052035,12,1,8.09,437.39
419428,0.51,0.44,0.03,4.18,7.12,-12.68,-0.5,0.0,207.0,40.93,1.50,43.222145,-0.052035,12,1,8.09,437.39
419734,-0.43,1.53,-0.27,-4.50,-14.06,3.43,1.7,1.8,210.0,40.93,1.50,43.222145,-0.052035,12,1,8.09,437.29
420040,0.52,0.33,0.11,7.31,6.50,-0.75,0.4,2.3,211.0,40.94,1.49,43.222145,-0.052035,12,1,8.09,437.10
420346,-0.11,-0.13,-0.19,-15.93,-0.62,2.75,1.6,2.5,210.3,40.95,1.50,43.222145,-0.052034,12,1,8.09,436.89
420652,0.83,1.03,-0.86,10.81,-6.43,-4.68,0.5,1.8,209.8,40.95,1.54,43.222145,-0.052034,12,1,8.09,436.70
420958,0.05,-0.25,0.20,0.12,4.87,2.50,0.3,2.0,209.0,40.96,1.52,43.222145,-0.052034,12,1,8.09,436.50
421264,0.02,0.00,0.01,-3.37,-2.68,5.18,0.7,1.5,208.5,40.96,1.52,43.222145,-0.052035,12,1,8.10,436.29
421570,0.07,-0.25,0.20,5.68,5.62,7.62,-0.6,0.0,206.8,40.97,1.51,43.222145,-0.052035,12,1,8.10,436.29
421876,0.61,0.61,0.09,2.37,8.93,-3.56,-1.6,0.8,205.5,40.97,1.51,43.222145,-0.052035,12,1,8.10,436.20
422182,0.00,-0.11,0.05,-6.00,4.50,-3.31,-1.9,1.4,205.7,40.98,1.49,43.222145,-0.052036,12,1,8.09,436.29
422488,0.28,0.11,0.07,3.93,-1.75,-0.43,-2.1,1.3,206.3,40.99,1.49,43.222145,-0.052036,12,1,8.09,436.29
422794,0.15,0.05,0.11,1.31,-0.68,2.37,-2.1,0.9,206.2,40.99,1.49,43.222145,-0.052036,12,1,8.09,436.29
423100,0.07,-0.02,-0.17,-7.87,-2.31,-3.12,-1.9,0.8,206.3,41.00,1.51,43.222145,-0.052036,12,1,8.09,436.29
423406,0.12,0.09,0.00,1.93,-0.37,-0.12,-2.0,1.5,207.0,41.00,1.52,43.222133,-0.052040,12,1,8.09,436.39
423712,-0.12,0.01,-0.00,1.93,-1.43,4.37,-1.5,1.8,207.0,41.01,1.51,43.222133,-0.052040,12,1,8.09,436.60
424018,0.34,-0.22,0.33,-4.25,1.68,1.37,-3.8,1.3,206.3,41.01,1.51,43.222133,-0.052040,12,1,8.09,436.70
424324,-0.07,0.02,-0.19,-3.62,-4.56,-4.68,-3.2,1.0,208.1,41.02,1.50,43.222133,-0.052044,12,1,8.09,436.79
424630,0.07,0.11,0.20,3.25,20.25,-8.87,-2.7,1.7,209.0,41.03,1.50,43.222133,-0.052044,12,1,8.09,436.89
424936,-0.10,-0.05,-0.30,1.06,-19.62,-2.06,-1.8,2.2,210.8,41.03,1.50,43.222133,-0.052044,12,1,8.09,437.10
425242,-0.00,0.68,0.07,15.37,5.81,-4.37,0.6,3.6,210.6,41.04,1.49,43.222133,-0.052047,12,1,8.09,437.10
425548,0.23,0.45,-0.20,-6.81,2.81,2.43,-0.2,3.8,210.0,41.04,1.51,43.222133,-0.052047,12,1,8.09,437.20
425854,-0.10,-0.25,0.31,11.68,-8.37,4.62,0.0,3.5,209.9,41.05,1.44,43.222133,-0.052047,12,1,8.09,437.39
426160,-0.01,-0.03,0.12,1.18,-0.56,-5.31,0.1,3.3,209.0,41.05,1.44,43.222133,-0.052047,12,1,8.09,437.50
426466,0.11,-0.01,1.09,38.00,67.56,-20.43,-4.0,3.2,209.6,41.06,1.46,43.222133,-0.052049,12,1,8.10,437.70
426772,-0.30,0.33,-0.28,-8.81,15.43,-0.93,-0.5,2.1,206.4,41.06,1.45,43.222133,-0.052049,12,1,8.10,437.89
427384,-0.52,-0.11,0.20,-1.56,-6.25,-3.62,2.1,2.0,206.5,41.07,1.50,43.222126,-0.052052,12,1,8.09,438.20
427690,0.40,0.76,-0.17,18.62,-2.06,0.25,1.8,2.3,204.5,41.08,1.51,43.222126,-0.052052,12,1,8.09,438.29
427996,0.27,0.17,-0.00,-1.62,-0.18,14.37,0.6,3.1,200.3,41.09,1.51,43.222126,-0.052052,12,1,8.09,438.39
428302,0.23,0.02,-0.03,-6.31,-0.75,5.12,-0.1,4.3,198.5,41.09,1.50,43.222126,-0.052052,12,1,8.09,438.50
428608,0.22,-0.03,0.28,1.25,13.06,-6.43,-1.4,4.1,198.8,41.10,1.49,43.222126,-0.052052,12,1,8.09,438.60
428914,-0.34,0.30,-0.17,-6.68,-2.25,8.18,0.6,5.1,197.3,41.10,1.48,43.222126,-0.052052,12,1,8.09,438.60
429220,0.55,0.15,0.25,3.87,9.50,12.31,-2.4,3.8,192.5,41.11,1.48,43.222126,-0.052054,12,1,8.09,438.60
429526,0.51,0.83,0.18,24.68,-17.81,8.93,-1.2,1.6,190.5,41.12,1.45,43.222126,-0.052054,12,1,8.09,438.70
429832,0.25,-0.73,-0.50,-9.62,-3.93,-18.68,1.6,0.1,190.6,41.12,1.44,43.222126,-0.052054,12,1,8.09,438.79
430138,0.05,-0.05,-0.27,-19.62,-14.68,5.37,4.3,4.8,198.3,41.12,1.45,43.222126,-0.052054,12,1,8.09,438.79
430444,-0.05,0.58,0.09,-0.12,-11.93,82.87,6.3,9.0,177.1,41.13,1.39,43.222126,-0.052056,12,1,8.08,438.89
430750,-0.05,0.01,0.30,12.68,-3.87,10.25,6.5,6.5,163.1,41.14,1.37,43.222126,-0.052056,12,1,8.08,439.00
431056,0.15,-0.25,-0.15,-0.81,10.18,-37.50,5.4,3.5,170.3,41.14,1.40,43.222126,-0.052056,12,1,8.08,439.00
431362,0.25,-0.45,0.35,-9.87,2.75,-60.43,3.3,3.0,182.8,41.15,1.40,43.222126,-0.052057,12,1,8.09,439.00
431668,-0.12,-0.09,0.43,-7.37,-3.93,-37.56,5.5,3.8,197.5,41.15,1.35,43.222126,-0.052057,12,1,8.09,438.89
431974,0.05,-0.07,-0.15,-10.00,8.37,20.68,4.3,4.9,198.6,41.16,1.31,43.222126,-0.052057,12,1,8.09,438.79
432280,0.36,0.30,-0.20,-2.06,6.62,-12.12,2.5,7.0,197.1,41.16,1.28,43.222118,-0.052057,12,1,8.09,438.70
432586,0.61,-0.23,-0.49,17.25,9.18,-6.37,1.0,4.1,201.2,41.17,1.29,43.222118,-0.052057,12,1,8.09,438.60
432892,0.13,-0.75,-0.85,-4.06,-9.12,53.37,3.8,1.6,194.6,41.18,1.27,43.222118,-0.052057,12,1,8.09,438.60
433198,-0.35,0.52,1.03,-16.31,-11.31,-2.56,7.2,9.5,187.0,41.18,1.23,43.222118,-0.052057,12,1,8.09,438.50
433504,-0.50,0.37,0.45,-0.56,-10.81,55.87,8.3,7.8,183.8,41.19,1.20,43.222118,-0.052058,12,1,8.10,438.39
433810,-0.11,0.20,0.20,23.00,-14.12,127.50,6.1,8.0,150.5,41.19,1.10,43.222118,-0.052058,12,1,8.10,438.29
434116,-0.00,-0.51,0.41,5.12,-5.12,11.93,6.8,4.5,129.6,41.20,1.05,43.222118,-0.052058,12,1,8.10,438.20
434422,-0.03,0.25,0.35,-12.87,-2.37,8.25,7.1,7.6,129.1,41.21,1.06,43.222118,-0.052061,12,1,8.09,438.10
434728,-0.13,0.22,-0.09,6.00,-3.93,51.56,7.3,7.8,118.5,41.21,1.01,43.222118,-0.052061,12,1,8.09,438.00
435034,0.25,0.10,-0.09,-1.75,-0.18,35.00,5.8,7.6,106.8,41.22,0.98,43.222118,-0.052061,12,1,8.09,438.00
435340,0.15,0.12,0.11,-1.56,-5.50,4.00,6.2,8.8,101.1,41.22,0.94,43.222118,-0.052062,12,1,8.09,437.89
435646,-0.31,0.28,-0.23,-13.81,-2.56,-45.81,8.9,10.4,105.8,41.22,0.94,43.222118,-0.052062,12,1,8.09,437.79
435952,0.18,0.34,-0.13,1.68,15.06,-2.31,8.6,9.8,116.5,41.23,0.96,43.222118,-0.052062,12,1,8.09,437.70
436258,0.47,-0.22,-0.45,9.68,-3.50,42.12,5.3,7.1,109.3,41.24,0.93,43.222118,-0.052062,12,1,8.09,437.70
436564,-0.40,0.25,0.15,-18.56,-24.12,-2.56,10.0,10.6,100.5,41.24,0.88,43.222118,-0.052062,12,1,8.09,437.60
436870,-0.56,0.20,0.30,12.93,-1.18,23.81,12.5,10.0,101.9,41.25,0.90,43.222118,-0.052062,12,1,8.09,437.50
437176,-0.11,0.00,0.15,-1.18,5.18,31.43,10.1,9.6,92.6,41.25,0.88,43.222118,-0.052062,12,1,8.09,437.50
437788,-0.56,0.54,-1.57,10.93,-22.06,26.18,8.6,11.1,69.1,41.26,0.81,43.222118,-0.052060,12,1,8.09,437.20
438094,-0.10,-0.67,-0.37,11.25,2.06,27.81,6.6,5.7,56.5,41.27,0.87,43.222118,-0.052060,12,1,8.09,437.00
438400,-0.03,-0.23,0.66,-12.81,-3.75,-19.37,6.4,7.6,57.1,41.27,0.90,43.222118,-0.052055,12,1,8.08,436.70
438706,-0.12,0.23,-1.01,11.31,1.93,-0.93,5.5,8.1,60.5,41.28,0.90,43.222118,-0.052055,12,1,8.08,436.39
439012,0.05,0.00,-0.13,-19.31,-10.87,53.06,5.2,8.4,51.5,41.28,0.85,43.222118,-0.052055,12,1,8.08,436.29
439318,0.47,0.07,0.75,15.68,6.31,33.06,3.3,9.1,37.2,41.29,0.84,43.222126,-0.052051,12,1,8.09,436.20
439624,-0.37,-0.43,1.52,39.37,-8.68,39.75,7.7,10.1,26.3,41.30,0.83,43.222126,-0.052051,12,1,8.09,436.00
439930,-0.51,-0.12,-0.93,-6.56,-0.93,5.31,6.6,7.7,13.6,41.30,0.85,43.222126,-0.052051,12,1,8.09,436.00
440236,0.00,0.44,0.11,-19.56,-0.62,39.06,4.1,11.3,6.6,41.31,0.88,43.222126,-0.052051,12,1,8.09,436.00
440542,-0.11,0.93,1.00,-13.43,-16.87,-16.62,4.9,14.7,3.6,41.31,0.91,43.222133,-0.052048,12,1,8.10,435.89
440848,-0.23,0.70,0.20,16.68,7.87,15.12,5.9,13.3,2.0,41.31,0.92,43.222133,-0.052048,12,1,8.10,435.79
441154,0.25,-0.46,-0.05,10.00,15.68,-23.37,2.8,6.6,5.5,41.32,0.98,43.222133,-0.052048,12,1,8.10,435.79
441460,0.88,-0.83,0.03,26.18,11.31,16.00,-0.3,4.3,5.3,41.33,0.99,43.222145,-0.052050,12,1,8.09,435.70
441766,0.83,-0.60,-1.54,-8.75,-2.12,-5.06,-1.3,4.1,358.9,41.33,0.97,43.222145,-0.052050,12,1,8.09,435.70
442072,-0.40,0.60,0.27,-30.00,-27.87,-75.31,5.3,11.5,13.6,41.33,1.00,43.222145,-0.052050,12,1,8.09,435.70
442378,-0.77,0.52,0.46,10.62,1.81,42.31,8.5,12.5,15.5,41.34,0.97,43.222152,-0.052051,12,1,8.09,435.60
442684,-0.61,-0.11,-0.75,17.62,15.43,-37.06,7.1,7.6,16.8,41.35,0.99,43.222152,-0.052051,12,1,8.09,435.60
442990,0.07,-0.75,0.70,15.37,2.12,36.18,3.4,4.8,18.7,41.35,0.99,43.222152,-0.052051,12,1,8.09,435.50
443296,-0.12,-0.86,-0.83,-7.12,-18.87,78.62,3.8,3.0,355.1,41.36,0.93,43.222152,-0.052051,12,1,8.09,435.39
443602,-0.09,0.45,0.25,5.31,-3.56,96.00,3.6,10.8,331.8,41.36,0.95,43.222160,-0.052048,12,1,8.09,435.39
443908,0.30,-0.22,0.20,-4.18,-16.00,52.18,1.2,8.2,304.8,41.37,0.96,43.222160,-0.052048,12,1,8.09,435.39
444214,0.55,1.23,0.47,-30.62,15.56,22.50,-0.3,14.7,297.7,41.37,1.01,43.222160,-0.052048,12,1,8.09,435.29
444520,0.72,1.04,1.05,12.31,-13.68,-2.00,-1.3,15.4,293.8,41.38,1.00,43.222167,-0.052051,12,1,8.09,435.29
444826,-0.25,0.67,-0.44,4.06,5.75,-84.81,3.5,11.8,304.8,41.38,1.00,43.222167,-0.052051,12,1,8.09,435.29
445132,0.88,-0.91,0.72,31.37,26.50,-89.62,-0.4,4.6,331.0,41.39,1.04,43.222167,-0.052051,12,1,8.09,435.29
445438,0.86,-0.67,0.07,-6.75,-0.81,-36.81,-1.4,4.9,347.1,41.39,0.97,43.222175,-0.052056,12,1,8.09,435.29
445744,0.03,0.54,0.23,-31.75,-12.56,-22.87,2.4,11.0,356.0,41.40,0.92,43.222175,-0.052056,12,1,8.09,435.29
446050,-0.38,1.42,1.80,-30.00,38.43,18.25,5.3,17.0,0.8,41.40,0.91,43.222175,-0.052056,12,1,8.09,435.20
446356,-0.37,1.09,-0.45,27.31,6.87,-77.87,4.5,13.8,14.8,41.41,0.95,43.222175,-0.052056,12,1,8.09,435.20
446662,0.31,-0.49,-0.60,17.37,22.00,-1.68,1.5,4.8,27.2,41.41,0.95,43.222183,-0.052059,12,1,8.09,435.10
446968,1.16,-0.81,-0.38,-3.31,8.18,-60.62,-3.6,3.1,34.0,41.42,0.94,43.222183,-0.052059,12,1,8.09,435.10
447274,1.12,-1.14,2.00,10.93,-2.00,32.56,-2.9,3.3,42.1,41.42,0.92,43.222183,-0.052059,12,1,8.09,435.10
447580,-0.51,-0.10,-1.16,-9.43,-14.00,33.37,4.4,5.6,29.3,41.43,0.87,43.222190,-0.052056,12,1,8.09,435.10
447886,-0.33,-0.05,-0.81,-8.18,14.75,-66.87,3.6,6.4,38.0,41.44,0.96,43.222190,-0.052056,12,1,8.09,435.10
448192,-0.03,0.09,1.51,-6.37,-11.62,23.81,3.5,9.4,46.5,41.44,0.97,43.222190,-0.052056,12,1,8.09,435.10
448498,-0.03,0.70,-1.37,10.31,9.06,-9.62,2.3,11.0,39.0,41.44,0.95,43.222202,-0.052049,12,1,8.09,434.89
448804,0.68,-0.25,0.46,31.75,24.31,-16.50,-0.8,5.6,49.9,41.45,1.01,43.222202,-0.052049,12,1,8.09,434.89
449110,0.50,-1.05,-0.75,-28.43,-22.50,-18.25,-1.3,0.4,54.8,41.45,0.99,43.222202,-0.052049,12,1,8.09,434.89
449416,-0.35,0.07,0.31,-2.25,-11.37,-31.81,3.3,7.3,59.0,41.46,0.98,43.222209,-0.052041,12,1,8.09,434.89
449722,0.57,-0.15,0.74,-14.37,4.06,-19.31,-0.1,7.2,65.3,41.47,1.01,43.222209,-0.052041,12,1,8.09,434.79
450028,0.17,0.66,-0.52,-4.56,9.50,-3.37,0.9,10.8,69.5,41.47,0.99,43.222209,-0.052041,12,1,8.09,434.79
450334,0.52,-0.61,1.23,20.62,-13.75,-14.06,-0.6,5.8,71.4,41.48,0.99,43.222209,-0.052041,12,1,8.09,434.79
450640,-0.09,0.00,-1.21,-5.43,-7.18,-1.43,1.8,6.1,71.1,41.48,0.98,43.222217,-0.052032,12,1,8.09,434.79
450946,0.09,-0.37,1.39,14.93,0.87,-27.50,1.8,6.0,75.6,41.48,1.01,43.222217,-0.052032,12,1,8.09,434.79
451252,0.20,-0.25,-0.30,-8.31,6.18,-26.06,0.6,5.6,81.8,41.49,1.02,43.222217,-0.052032,12,1,8.09,434.79
451558,1.01,-1.17,1.61,13.31,5.56,41.31,-2.5,2.7,80.8,41.50,1.04,43.222217,-0.052020,12,1,8.09,434.79
451864,-0.43,0.00,-1.88,5.50,-26.37,-33.62,3.2,5.6,76.0,41.50,1.01,43.222217,-0.052020,12,1,8.09,434.79
452170,-0.25,0.15,1.78,-15.81,12.50,-20.43,3.7,8.5,86.0,41.50,1.07,43.222217,-0.052020,12,1,8.09,434.79
452476,0.40,-0.10,-0.20,-1.18,3.62,-17.12,-0.3,7.3,88.8,41.51,1.07,43.222225,-0.052008,12,1,8.09,434.79
452782,0.52,0.15,0.35,7.25,-1.50,16.43,-1.1,7.8,87.5,41.51,1.03,43.222225,-0.052008,12,1,8.09,434.79
453088,0.98,-0.90,-0.47,27.62,4.18,-12.00,-3.1,2.0,81.1,41.52,1.04,43.222225,-0.052008,12,1,8.09,434.89
453394,-0.17,-0.30,-0.93,-22.56,-18.06,-42.56,1.8,4.6,92.6,41.53,1.08,43.222225,-0.052008,12,1,8.09,434.89
453700,-0.61,0.70,1.07,-3.56,5.06,-9.00,5.4,11.3,99.6,41.53,1.09,43.222225,-0.051995,12,1,8.09,434.89
454006,-0.72,0.00,-0.23,-1.00,-6.75,16.31,6.5,7.5,99.3,41.54,1.06,43.222225,-0.051995,12,1,8.09,434.79
454312,-0.75,0.19,0.45,0.37,9.43,-18.06,5.8,8.3,99.9,41.54,1.07,43.222225,-0.051995,12,1,8.09,434.89
454618,0.95,-0.35,-0.72,12.25,15.50,45.00,-2.3,4.6,96.0,41.55,1.09,43.222225,-0.051984,12,1,8.09,434.89
454924,0.35,-0.11,-1.20,-9.37,-24.37,-30.37,-0.3,5.6,90.6,41.55,1.07,43.222225,-0.051984,12,1,8.09,435.00
455230,-0.86,0.61,1.19,-8.00,-20.31,16.00,6.8,11.0,94.7,41.56,1.08,43.222225,-0.051984,12,1,8.09,435.00
455536,-0.27,0.50,0.27,9.81,12.31,3.25,4.3,10.4,85.8,41.56,1.08,43.222225,-0.051971,12,1,8.09,435.00
455842,-0.03,0.36,0.13,-1.75,7.62,-6.75,2.0,8.9,91.9,41.57,1.10,43.222225,-0.051971,12,1,8.09,435.10
456148,0.74,-0.37,-0.31,26.56,2.93,14.81,-1.7,4.5,86.8,41.57,1.07,43.222225,-0.051971,12,1,8.09,435.10
456454,-0.07,-0.05,-1.11,-32.93,-27.87,-9.50,2.0,5.9,86.8,41.58,1.06,43.222225,-0.051971,12,1,8.09,435.20
456760,-0.63,1.07,1.72,-17.56,5.68,28.75,6.5,13.8,85.5,41.58,1.07,43.222232,-0.051958,12,1,8.09,435.10
457066,-0.27,0.63,0.11,15.50,8.00,-14.56,3.8,11.1,82.4,41.59,1.07,43.222232,-0.051958,12,1,8.09,435.20
457372,0.55,-0.15,0.95,31.18,0.56,0.68,-0.6,6.2,83.8,41.59,1.08,43.222232,-0.051958,12,1,8.09,435.20
457678,0.22,-1.72,-2.57,1.93,-15.18,7.37,0.0,-3.8,74.1,41.60,1.04,43.222232,-0.051946,12,1,8.09,435.29
457984,-0.05,-0.15,0.07,-20.50,-8.62,-71.81,1.6,4.7,85.0,41.60,1.10,43.222232,-0.051946,12,1,8.09,435.29
458290,-0.03,0.05,-0.00,-1.62,4.50,16.43,2.1,7.0,93.1,41.60,1.11,43.222232,-0.051946,12,1,8.09,435.29
458596,-0.03,0.00,0.30,-6.75,6.81,-9.37,1.6,7.2,92.5,41.61,1.08,43.222232,-0.051930,12,1,8.09,435.39
458902,0.36,-0.20,0.97,0.00,5.43,19.37,-0.0,6.8,93.1,41.62,1.08,43.222232,-0.051930,12,1,8.09,435.39
459208,0.27,-0.02,-0.83,2.81,-17.31,-23.75,-0.0,6.0,91.3,41.62,1.08,43.222232,-0.051930,12,1,8.09,435.60
459514,0.22,-0.17,1.07,7.56,7.37,17.87,2.0,6.8,94.5,41.63,1.08,43.222232,-0.051916,12,1,8.09,435.60
459820,0.12,-0.07,-2.10,9.43,15.62,-42.62,0.5,4.6,96.5,41.63,1.10,43.222232,-0.051916,12,1,8.09,435.70
460126,0.97,-1.02,1.39,21.12,10.00,-23.50,-3.0,2.0,110.1,41.63,1.14,43.222232,-0.051916,12,1,8.09,435.79
460432,0.37,0.00,-1.21,-26.37,-27.75,35.62,-1.5,5.6,103.2,41.64,1.10,43.222232,-0.051916,12,1,8.09,435.79
460738,-0.44,0.90,1.11,-1.93,-5.81,-22.75,3.8,11.8,100.7,41.64,1.10,43.222232,-0.051901,12,1,8.09,435.79
461044,0.27,0.22,-0.56,12.50,16.43,0.93,0.9,8.0,101.6,41.65,1.13,43.222232,-0.051901,12,1,8.09,435.79
461350,0.41,-0.22,0.07,-2.37,14.06,-60.75,-1.4,5.4,113.8,41.66,1.14,43.222232,-0.051901,12,1,8.09,435.89
461656,0.91,-0.11,-0.86,-4.81,17.00,32.50,-4.0,5.3,119.0,41.66,1.12,43.222232,-0.051888,12,1,8.10,435.89
461962,0.22,0.25,-0.58,-24.87,-17.25,-28.68,-0.7,8.0,119.3,41.67,1.09,43.222232,-0.051888,12,1,8.10,436.00
462268,1.24,-0.37,0.38,27.87,30.12,-29.25,-4.0,6.8,123.7,41.67,1.13,43.222232,-0.051888,12,1,8.10,435.89
462574,-0.22,-0.01,0.07,-22.81,-18.68,-109.25,2.5,7.9,150.5,41.67,1.10,43.222225,-0.051873,12,1,8.09,435.89
462880,-0.28,-1.50,2.52,35.50,6.75,7.50,4.2,2.0,165.8,41.68,1.08,43.222225,-0.051873,12,1,8.09,435.89
463186,0.20,-0.55,-0.68,-11.37,14.12,-4.25,1.0,3.1,160.2,41.68,1.06,43.222225,-0.051873,12,1,8.09,435.89
463492,0.15,-0.61,0.61,-14.25,9.31,-45.87,0.3,4.3,174.0,41.69,1.12,43.222225,-0.051873,12,1,8.09,436.00
463798,-0.30,-0.22,-0.31,5.00,-2.50,-73.12,2.6,4.9,189.8,41.69,1.15,43.222225,-0.051865,12,1,8.09,436.10
464104,-0.07,-0.30,0.38,-4.31,30.56,-121.56,0.0,4.4,223.3,41.70,1.25,43.222225,-0.051865,12,1,8.09,436.20
464410,0.85,-0.81,-1.25,16.75,23.75,-40.25,-5.1,1.3,250.1,41.70,1.29,43.222225,-0.051865,12,1,8.09,436.29
464716,0.61,-0.61,-1.21,-4.06,-3.25,-0.50,-5.3,2.6,260.1,41.71,1.32,43.222217,-0.051859,12,1,8.09,436.50
465022,0.30,-0.40,-0.45,3.18,4.12,14.93,-4.0,4.5,260.1,41.71,1.37,43.222217,-0.051859,12,1,8.09,436.50
465328,0.19,-0.11,0.22,-25.18,-17.93,168.68,-2.3,5.8,238.3,41.72,1.42,43.222217,-0.051859,12,1,8.09,436.60
465634,0.33,0.28,-0.44,-15.68,-5.87,52.43,-3.5,8.3,201.0,41.72,1.44,43.222217,-0.051855,12,1,8.09,436.70
465940,0.66,0.41,0.54,18.12,7.62,50.12,-4.3,9.1,196.9,41.73,1.55,43.222217,-0.051855,12,1,8.09,436.70
466246,0.50,-0.58,-0.17,-0.18,-8.37,28.43,-3.7,3.9,182.9,41.73,1.55,43.222217,-0.051855,12,1,8.09,436.79
466552,0.46,0.27,-0.73,-21.50,10.50,-61.06,-3.7,9.0,205.5,41.73,1.64,43.222217,-0.051855,12,1,8.09,436.79
466858,0.49,1.05,0.07,-0.43,-14.81,23.93,-4.5,12.6,200.5,41.74,1.62,43.222209,-0.051845,12,1,8.09,436.79
467164,-1.14,-0.30,0.02,7.50,-33.81,84.68,3.6,5.7,190.1,41.74,1.62,43.222209,-0.051845,12,1,8.09,436.79
467470,0.07,0.25,-1.25,-0.75,21.12,26.62,-1.1,7.4,168.0,41.75,1.70,43.222209,-0.051845,12,1,8.09,437.00
467776,0.55,0.57,-0.30,-7.50,12.25,-3.43,-3.6,9.3,170.9,41.75,1.78,43.222209,-0.051837,12,1,8.09,437.00
468082,0.91,0.33,0.86,13.87,0.50,31.06,-5.3,8.5,166.0,41.75,1.75,43.222209,-0.051837,12,1,8.09,436.79
468388,0.13,-0.03,0.27,-2.37,-17.87,26.93,-1.6,6.0,156.6,41.76,1.68,43.222209,-0.051837,12,1,8.09,436.70
468694,-0.15,0.28,-0.12,1.43,0.81,-54.62,-0.5,7.0,164.4,41.77,1.68,43.222217,-0.051829,12,1,8.09,436.70
469000,-0.40,-0.05,-0.09,6.50,-1.43,-4.87,0.6,5.0,181.0,41.77,1.67,43.222217,-0.051829,12,1,8.09,436.70
469306,-0.15,-0.15,-0.12,3.31,6.50,-37.25,-0.8,4.5,185.5,41.77,1.63,43.222217,-0.051829,12,1,8.09,436.70
469612,0.15,-0.30,-0.27,-0.81,2.06,14.56,-1.5,4.4,193.2,41.78,1.59,43.222217,-0.051826,12,1,8.09,436.70
469918,-0.15,-0.11,0.30,6.62,-4.68,17.06,-1.0,2.8,189.0,41.78,1.55,43.222217,-0.051826,12,1,8.09,436.70
470530,-0.15,-0.25,-0.15,-1.87,1.06,0.68,-0.3,-0.2,185.6,41.79,1.55,43.222217,-0.051826,12,1,8.09,436.79
470836,-0.05,-0.03,-0.03,-0.50,-0.31,0.18,-0.5,-0.2,185.9,41.80,1.55,43.222217,-0.051826,12,1,8.09,436.89
471142,-0.18,-0.15,-0.02,0.25,-0.25,-0.50,-0.6,-0.2,186.0,41.80,1.54,43.222217,-0.051826,12,1,8.09,436.89
471448,-0.11,-0.03,0.05,-0.25,0.18,0.25,-0.6,-0.2,186.0,41.81,1.53,43.222217,-0.051826,12,1,8.09,436.89
471754,0.20,-0.01,-1.39,0.06,0.31,-0.06,-0.6,-0.1,186.0,41.81,1.52,43.222217,-0.051825,12,1,8.09,436.89
472060,-0.05,0.11,-0.07,0.56,-0.43,-0.56,-0.6,-0.1,186.0,41.82,1.51,43.222217,-0.051825,12,1,8.09,436.89
472366,-0.03,0.05,0.00,0.81,0.31,-0.06,-0.6,-0.1,186.0,41.82,1.51,43.222217,-0.051825,12,1,8.09,436.89
472978,-0.01,-0.03,0.05,0.25,-0.43,-0.31,-0.8,-0.1,186.0,41.83,1.52,43.222217,-0.051824,12,1,8.09,436.89
473284,0.11,0.03,0.07,1.12,0.87,-0.75,-0.8,-0.0,186.0,41.83,1.54,43.222217,-0.051824,12,1,8.09,436.89
473590,-0.11,-0.05,-0.11,-1.12,-0.31,-0.31,-0.8,0.0,186.0,41.84,1.56,43.222217,-0.051824,12,1,8.09,436.89
473896,-0.01,0.05,0.18,-0.25,-0.50,-0.37,-0.8,-0.0,186.0,41.84,1.60,43.222217,-0.051824,12,1,8.09,436.79
474202,-0.00,0.01,-0.02,0.06,0.06,-0.12,-0.9,0.0,186.0,41.85,1.63,43.222217,-0.051824,12,1,8.09,436.79
474508,-0.03,0.00,-0.00,-0.12,-0.12,-0.12,-0.9,0.0,186.0,41.85,1.66,43.222217,-0.051824,12,1,8.09,436.79
474814,-0.07,0.00,-0.02,-0.18,-0.12,-0.06,-0.9,0.0,186.0,41.86,1.69,43.222217,-0.051824,12,1,8.09,436.79
475120,-0.10,-0.34,0.13,-0.87,0.06,0.37,-0.9,0.0,186.0,41.86,1.69,43.222217,-0.051824,12,1,8.09,436.79
475426,0.01,0.11,0.17,0.56,0.12,-0.75,-0.9,0.0,186.0,41.87,1.66,43.222217,-0.051824,12,1,8.09,436.79
475732,0.41,-0.30,0.36,1.25,1.00,7.18,-1.0,-0.1,185.7,41.87,1.62,43.222217,-0.051823,12,1,8.08,436.79
476038,0.09,0.00,0.03,0.25,0.93,-0.18,-0.9,0.0,185.6,41.88,1.60,43.222217,-0.051823,12,1,8.08,436.79
476344,-0.11,0.01,0.00,-2.31,-0.75,-0.18,-1.1,-0.1,186.2,41.88,1.60,43.222217,-0.051823,12,1,8.08,436.79
476650,0.03,-0.07,0.05,-0.37,-0.25,-0.06,-1.0,-0.0,186.3,41.89,1.68,43.222217,-0.051823,12,1,8.08,436.79
476956,-0.09,0.00,-0.07,-0.93,-0.06,-0.37,-1.0,-0.1,186.3,41.89,1.68,43.222209,-0.051822,12,1,8.09,436.79
477262,-0.01,0.07,0.00,-0.75,-0.93,-0.25,-1.0,-0.0,186.3,41.90,1.71,43.222209,-0.051822,12,1,8.09,436.79
477568,-0.02,0.07,0.02,0.00,-0.06,0.18,-1.0,-0.0,186.3,41.90,1.71,43.222209,-0.051822,12,1,8.09,436.79
477874,-0.02,0.03,-0.01,0.06,-0.06,0.00,-1.0,-0.0,186.3,41.90,1.70,43.222217,-0.051822,12,1,8.09,436.89
478180,-0.03,0.03,-0.01,0.87,-0.06,0.00,-1.0,-0.1,186.3,41.91,1.69,43.222217,-0.051822,12,1,8.09,436.79
478486,-0.05,-0.02,-0.01,-0.12,-0.06,0.00,-1.0,-0.1,186.3,41.91,1.68,43.222217,-0.051822,12,1,8.09,436.79
479098,-0.00,0.00,-0.00,0.50,0.43,0.18,-1.0,-0.1,186.3,41.92,1.65,43.222209,-0.051821,12,1,8.09,436.79
479404,0.00,-0.02,0.00,0.12,0.00,0.18,-1.0,-0.1,186.3,41.93,1.68,43.222209,-0.051821,12,1,8.09,436.79
479710,0.07,0.07,0.12,0.00,-0.93,-1.25,-1.0,-0.1,186.3,41.93,1.71,43.222209,-0.051820,12,1,8.09,436.79
480016,0.03,-0.03,0.05,-0.68,0.18,0.56,-1.0,-0.1,186.3,41.93,1.72,43.222209,-0.051820,12,1,8.09,436.70
480322,-0.05,0.12,0.00,1.00,-0.12,-0.12,-1.0,-0.1,186.3,41.94,1.70,43.222209,-0.051820,12,1,8.09,436.70
480628,-0.22,0.00,0.17,-0.12,0.06,-0.18,-1.0,-0.0,186.2,41.94,1.69,43.222209,-0.051820,12,1,8.09,436.60
480934,-0.01,-0.00,-0.05,0.50,0.06,0.00,-1.1,-0.1,186.2,41.95,1.68,43.222217,-0.051820,12,1,8.09,436.60
481240,0.05,0.02,-0.01,-0.25,0.06,0.06,-1.1,-0.1,186.2,41.95,1.72,43.222217,-0.051820,12,1,8.09,436.60
481546,-0.02,0.00,0.00,0.06,0.18,0.25,-1.1,-0.1,186.2,41.96,1.73,43.222217,-0.051820,12,1,8.09,436.50
482158,0.00,0.00,-0.01,0.18,-0.18,0.12,-1.0,-0.1,186.2,41.97,1.76,43.222217,-0.051819,12,1,8.09,436.50
482464,-0.11,0.12,-0.11,-0.81,0.50,0.68,-1.1,-0.1,186.1,41.97,1.76,43.222217,-0.051819,12,1,8.09,436.50
482770,-0.11,-0.01,-0.01,0.06,0.00,0.06,-1.0,-0.1,186.1,41.97,1.76,43.222217,-0.051818,12,1,8.09,436.50
483076,0.03,0.22,0.05,1.81,-0.31,-1.18,-1.1,-0.1,186.1,41.98,1.76,43.222217,-0.051818,12,1,8.09,436.50
483382,-0.02,0.05,0.00,0.50,0.12,0.12,-1.1,-0.0,186.1,41.98,1.76,43.222217,-0.051818,12,1,8.09,436.50
483688,-0.05,-0.01,-0.00,0.37,0.18,-0.25,-1.1,-0.0,186.1,41.99,1.74,43.222217,-0.051818,12,1,8.09,436.50
483994,-0.02,-0.02,-0.00,0.06,0.00,-0.06,-1.1,-0.0,186.1,41.99,1.73,43.222217,-0.051818,12,1,8.09,436.50
484300,-0.00,-0.01,-0.00,0.18,0.31,-0.06,-1.1,-0.0,186.1,42.00,1.72,43.222217,-0.051818,12,1,8.09,436.50
484606,0.00,-0.01,-0.01,0.06,0.18,0.25,-1.1,-0.0,186.1,42.00,1.70,43.222217,-0.051818,12,1,8.09,436.50
485218,-0.00,0.00,0.00,0.18,0.06,0.18,-1.1,-0.0,186.1,42.01,1.65,43.222217,-0.051817,12,1,8.09,436.50
485524,-0.01,-0.00,0.00,0.00,0.06,-0.12,-1.1,-0.0,186.1,42.01,1.63,43.222217,-0.051817,12,1,8.09,436.50
485830,-0.01,-0.00,-0.02,0.18,0.31,-0.31,-1.1,-0.0,186.1,42.02,1.63,43.222217,-0.051817,12,1,8.09,436.50
486136,0.00,0.02,0.00,-0.12,-0.62,-0.12,-1.1,-0.1,186.1,42.02,1.62,43.222217,-0.051817,12,1,8.09,436.50
486442,-0.01,0.01,0.00,-0.18,-0.12,0.00,-1.1,-0.1,186.1,42.03,1.61,43.222217,-0.051817,12,1,8.09,436.50
486748,-0.02,-0.01,0.00,-0.06,0.31,0.25,-1.1,-0.0,186.1,42.03,1.61,43.222217,-0.051817,12,1,8.09,436.50
487054,-0.03,0.01,0.00,0.87,0.56,-0.31,-1.0,0.0,186.1,42.04,1.60,43.222217,-0.051817,12,1,8.09,436.50
487360,-0.00,-0.03,0.00,-0.50,-0.43,0.06,-1.0,0.0,186.1,42.04,1.61,43.222217,-0.051817,12,1,8.09,436.50
487666,-0.02,0.00,-0.05,-0.18,-0.18,0.06,-1.0,0.0,186.1,42.04,1.60,43.222217,-0.051817,12,1,8.09,436.50
487972,-0.01,0.07,0.00,-0.25,-0.25,0.00,-1.0,0.0,186.1,42.05,1.61,43.222217,-0.051816,12,1,8.09,436.50
488278,-0.05,0.03,0.00,-0.12,-0.18,-0.06,-1.0,0.0,186.1,42.05,1.60,43.222217,-0.051816,12,1,8.09,436.50
488584,-0.02,0.01,0.00,0.12,0.25,0.00,-1.0,0.0,186.1,42.06,1.60,43.222217,-0.051816,12,1,8.09,436.50
488890,-0.01,0.01,0.00,-0.12,0.00,0.00,-1.0,0.0,186.1,42.06,1.61,43.222217,-0.051816,12,1,8.09,436.50
489196,-0.00,0.00,-0.00,0.12,0.06,0.06,-1.0,0.0,186.1,42.06,1.60,43.222217,-0.051816,12,1,8.09,436.50
489808,-0.02,0.05,0.00,0.37,0.06,-0.18,-1.0,0.0,186.1,42.07,1.60,43.222217,-0.051816,12,1,8.09,436.39
490114,-0.01,0.00,-0.00,-0.25,-0.06,0.12,-1.0,0.0,186.1,42.07,1.60,43.222217,-0.051816,12,1,8.09,436.39
490420,-0.01,0.02,0.00,0.25,0.06,0.00,-1.0,0.0,186.1,42.08,1.61,43.222217,-0.051816,12,1,8.09,436.39
490726,-0.05,0.00,-0.00,-0.06,0.00,-0.06,-1.0,0.0,186.1,42.08,1.63,43.222217,-0.051816,12,1,8.09,436.39
491032,-0.00,0.05,0.01,0.43,0.12,-0.12,-1.0,0.0,186.1,42.09,1.65,43.222217,-0.051816,12,1,8.09,436.39
491338,-0.01,0.01,-0.00,0.12,-0.18,-0.12,-1.0,0.0,186.1,42.09,1.65,43.222217,-0.051816,12,1,8.09,436.39
491644,-0.07,0.00,0.00,0.00,0.12,0.25,-1.0,0.0,186.1,42.10,1.67,43.222217,-0.051816,12,1,8.09,436.39
491950,-0.05,0.00,-0.05,0.00,0.00,-0.31,-1.0,0.0,186.1,42.10,1.67,43.222217,-0.051816,12,1,8.09,436.39
492256,-0.03,0.00,-0.00,-0.06,-0.06,0.00,-1.0,0.0,186.1,42.11,1.67,43.222217,-0.051816,12,1,8.09,436.39
492562,-0.05,0.00,0.00,0.12,-0.18,-0.06,-1.0,0.0,186.1,42.11,1.68,43.222217,-0.051816,12,1,8.09,436.29
492868,-0.00,0.05,-0.00,0.06,0.00,0.12,-1.0,0.0,186.1,42.11,1.68,43.222217,-0.051816,12,1,8.09,436.29
493174,-0.02,0.02,0.00,0.06,0.18,0.06,-1.0,0.0,186.1,42.12,1.69,43.222217,-0.051816,12,1,8.09,436.29
493480,-0.02,0.02,-0.00,0.00,0.00,0.12,-1.0,0.0,186.1,42.12,1.70,43.222217,-0.051816,12,1,8.09,436.29
494092,-0.02,0.00,0.00,-0.12,0.00,-0.06,-1.0,0.0,186.1,42.13,1.72,43.222209,-0.051816,12,1,8.09,436.29
494398,-0.05,0.00,-0.01,-0.06,0.00,0.00,-1.0,0.0,186.1,42.13,1.75,43.222209,-0.051816,12,1,8.09,436.29
494704,0.00,0.03,0.00,0.18,0.25,-0.12,-1.0,0.0,186.1,42.14,1.78,43.222209,-0.051816,12,1,8.09,436.39
495010,-0.05,0.01,0.02,0.18,-0.12,0.18,-1.0,0.0,186.1,42.14,1.78,43.222209,-0.051816,12,1,8.09,436.39
495316,-0.02,0.01,0.00,0.00,0.06,-0.12,-1.0,0.0,186.1,42.15,1.76,43.222209,-0.051816,12,1,8.09,436.29
495622,-0.02,0.01,-0.01,0.06,0.06,0.00,-1.0,0.0,186.1,42.15,1.74,43.222209,-0.051816,12,1,8.09,436.29
495928,0.00,0.15,0.01,0.93,-0.06,-0.56,-1.0,0.0,186.1,42.15,1.73,43.222209,-0.051816,12,1,8.09,436.29
496234,-0.10,-0.05,-0.11,-0.18,0.25,0.25,-1.0,0.0,186.1,42.16,1.70,43.222209,-0.051816,12,1,8.09,436.29
496540,-0.01,0.05,-0.00,-0.43,-0.50,0.12,-1.0,0.0,186.1,42.16,1.70,43.222209,-0.051816,12,1,8.09,436.29
496846,-0.15,-0.11,0.00,-0.81,0.25,0.87,-0.9,0.0,186.1,42.17,1.71,43.222209,-0.051816,12,1,8.09,436.20
497458,-0.00,0.27,0.00,1.50,0.00,-0.56,-0.9,0.0,186.0,42.18,1.72,43.222209,-0.051817,12,1,8.09,436.20
497764,-0.03,0.00,-0.07,0.18,0.37,0.12,-0.9,0.0,186.0,42.18,1.72,43.222209,-0.051817,12,1,8.09,436.20
498070,0.05,0.00,-0.03,-1.12,-0.81,-0.43,-1.0,0.0,186.0,42.18,1.70,43.222209,-0.051817,12,1,8.09,436.20
498376,-0.05,0.07,-0.02,0.00,-0.43,-0.18,-1.0,0.0,186.0,42.19,1.69,43.222209,-0.051817,12,1,8.09,436.29
498682,-0.09,0.05,-0.07,0.12,-0.12,0.25,-0.9,0.0,186.1,42.19,1.68,43.222209,-0.051817,12,1,8.09,436.29
498988,-0.02,0.20,-0.10,0.81,-0.68,-0.50,-0.9,0.0,186.0,42.20,1.70,43.222209,-0.051817,12,1,8.08,436.29
499294,0.01,0.34,0.20,7.62,-0.56,-0.50,-0.9,0.0,186.0,42.20,1.69,43.222209,-0.051817,12,1,8.08,436.29
499600,-0.05,-0.00,-0.03,0.00,0.12,0.06,-0.9,0.0,186.0,42.20,1.70,43.222209,-0.051817,12,1,8.08,436.29
499906,-0.09,-0.12,-0.28,-0.37,0.50,-0.06,-0.8,0.0,186.1,42.21,1.69,43.222209,-0.051817,12,1,8.09,436.39
500212,-0.09,0.10,0.01,-1.06,-0.37,-0.43,-0.8,0.0,188.8,42.21,1.69,43.222209,-0.051817,12,1,8.09,436.39
500518,0.02,0.05,0.07,-1.43,-1.06,6.56,-1.0,-0.1,187.8,42.22,1.67,43.222209,-0.051817,12,1,8.09,436.39
500824,0.11,-0.41,-0.00,-1.50,-0.93,10.25,-1.0,0.0,184.6,42.22,1.67,43.222209,-0.051817,12,1,8.09,436.50
501436,-0.30,-0.07,-0.00,0.00,1.81,0.68,-1.0,0.0,181.6,42.23,1.69,43.222209,-0.051817,12,1,8.09,436.50
501742,-0.01,0.05,0.03,0.75,0.50,0.06,-1.0,0.0,181.6,42.23,1.70,43.222209,-0.051817,12,1,8.09,436.50
502048,0.27,-0.40,0.05,-3.18,-3.87,-1.62,-1.0,0.0,181.6,42.24,1.72,43.222209,-0.051817,12,1,8.09,436.50
502354,-0.15,-0.01,0.02,-0.06,0.00,1.25,-1.0,0.0,181.6,42.24,1.72,43.222209,-0.051817,12,1,8.09,436.50
502660,0.00,0.00,0.01,-0.06,-0.12,0.18,-1.0,0.0,181.6,42.24,1.74,43.222209,-0.051817,12,1,8.09,436.50
502966,-0.05,0.00,0.00,0.00,0.00,0.12,-1.0,0.0,181.6,42.25,1.73,43.222209,-0.051817,12,1,8.09,436.50
503272,-0.01,0.07,0.00,0.06,-0.12,0.00,-1.0,0.0,181.6,42.25,1.71,43.222209,-0.051817,12,1,8.09,436.50
503578,-0.03,0.00,0.00,-0.06,0.06,0.00,-1.0,0.0,181.6,42.26,1.69,43.222209,-0.051817,12,1,8.09,436.50
503884,-0.03,0.00,0.00,-0.18,0.00,0.18,-1.0,0.0,181.6,42.26,1.70,43.222209,-0.051817,12,1,8.09,436.50
504190,-0.02,-0.00,0.00,-0.12,0.00,0.31,-1.0,0.0,181.6,42.26,1.72,43.222209,-0.051818,12,1,8.09,436.50
504496,-0.01,0.07,0.00,0.06,0.00,0.00,-1.0,0.0,181.6,42.27,1.73,43.222209,-0.051818,12,1,8.09,436.50
504802,-0.03,0.01,-0.00,-0.18,-0.06,0.12,-1.0,0.0,181.6,42.27,1.72,43.222209,-0.051818,12,1,8.09,436.50
505108,0.12,-0.66,-0.05,-1.06,0.06,-1.25,-1.0,0.0,181.5,42.28,1.72,43.222209,-0.051818,12,1,8.09,436.50
505414,-0.09,-0.02,-0.01,0.00,0.18,0.75,-1.0,0.0,181.5,42.28,1.72,43.222209,-0.051818,12,1,8.09,436.50
506026,-0.01,-0.00,0.02,-0.06,-0.06,0.12,-1.0,0.0,181.5,42.29,1.77,43.222209,-0.051818,12,1,8.09,436.50
506332,-0.01,0.00,-0.00,-0.06,-0.12,0.06,-1.0,0.0,181.5,42.29,1.78,43.222209,-0.051818,12,1,8.09,436.50
506638,0.00,0.01,0.00,0.06,0.06,-0.12,-1.0,0.0,181.5,42.30,1.80,43.222209,-0.051818,12,1,8.09,436.50
506944,-0.03,0.00,0.00,0.12,-0.06,0.06,-1.0,0.0,181.5,42.30,1.80,43.222209,-0.051818,12,1,8.09,436.50
507250,-0.01,0.00,0.00,-0.06,-0.12,-0.25,-1.0,0.0,181.5,42.30,1.81,43.222209,-0.051819,12,1,8.09,436.50
507556,0.00,0.05,0.00,0.43,-0.18,-0.56,-1.0,0.0,181.5,42.31,1.78,43.222209,-0.051819,12,1,8.09,436.60
508168,-0.03,-0.01,-0.05,-0.18,0.56,0.93,-1.0,0.0,181.5,42.31,1.75,43.222209,-0.051819,12,1,8.09,436.60
508474,-0.03,-0.05,0.05,-0.31,0.62,0.37,-1.0,0.0,181.5,42.32,1.75,43.222209,-0.051819,12,1,8.09,436.60
510310,-0.00,0.00,0.02,1.00,0.37,-0.37,-1.0,0.0,183.9,42.34,1.61,43.222209,-0.051819,12,1,8.09,436.70
510922,-0.15,-0.43,-0.12,3.62,-0.50,1.87,-1.2,0.0,184.5,42.35,1.55,43.222209,-0.051819,12,1,8.09,436.70
511534,0.09,0.17,-0.11,-5.25,-3.50,-0.37,-1.1,-0.1,183.2,42.36,1.50,43.222209,-0.051819,12,1,8.09,436.70
511840,0.01,-0.00,0.03,-0.87,-0.62,0.00,-1.0,-0.0,183.2,42.37,1.47,43.222209,-0.051819,12,1,8.09,436.70
512452,0.00,-0.00,0.00,0.00,0.12,-0.43,-1.0,0.0,183.2,42.38,1.44,43.222209,-0.051820,12,1,8.08,436.79
512758,0.00,-0.00,-0.00,0.18,0.06,-0.06,-1.0,0.0,183.2,42.38,1.46,43.222209,-0.051820,12,1,8.08,436.79
513064,-0.00,-0.00,0.00,-0.06,-0.25,-0.12,-1.0,0.0,183.2,42.39,1.45,43.222209,-0.051820,12,1,8.09,436.79
513370,0.00,-0.02,-0.01,-0.12,-0.06,-0.12,-1.0,0.0,183.2,42.40,1.46,43.222209,-0.051820,12,1,8.09,436.79
513676,0.00,-0.00,-0.01,0.06,0.00,0.00,-1.0,0.0,183.2,42.40,1.48,43.222209,-0.051820,12,1,8.09,436.79
513982,0.00,0.00,-0.01,0.06,0.06,-0.06,-1.0,0.0,183.2,42.41,1.47,43.222209,-0.051820,12,1,8.09,436.79
514288,-0.00,-0.01,0.00,0.00,0.18,0.00,-1.0,0.0,183.2,42.41,1.47,43.222209,-0.051820,12,1,8.09,436.79
514594,-0.01,-0.00,-0.01,-0.06,0.00,-0.12,-1.0,0.0,183.2,42.41,1.48,43.222209,-0.051820,12,1,8.09,436.89
514900,-0.01,0.00,0.00,0.00,-0.06,0.00,-1.0,0.0,183.2,42.42,1.49,43.222209,-0.051820,12,1,8.09,436.89
515206,0.00,0.00,0.00,0.00,-0.18,0.06,-1.0,0.0,183.2,42.42,1.51,43.222209,-0.051820,12,1,8.09,436.89
515818,0.00,0.00,0.00,0.06,0.00,-0.18,-1.0,0.0,183.2,42.43,1.53,43.222209,-0.051820,12,1,8.09,436.89
516124,0.00,-0.01,0.00,0.00,0.25,0.00,-1.0,0.0,183.2,42.44,1.54,43.222209,-0.051821,12,1,8.08,436.89
516430,0.00,0.00,0.00,0.00,-0.06,0.06,-1.0,0.0,183.2,42.44,1.55,43.222209,-0.051821,12,1,8.08,437.00
516736,0.00,-0.00,0.00,0.06,-0.06,0.12,-1.0,0.0,183.2,42.44,1.57,43.222209,-0.051821,12,1,8.08,437.00
517042,0.00,-0.01,-0.00,-0.12,0.00,0.00,-1.0,0.0,183.2,42.45,1.57,43.222209,-0.051821,12,1,8.08,437.00
517348,-0.00,-0.02,-0.00,0.06,0.06,0.18,-1.0,0.0,183.2,42.45,1.58,43.222209,-0.051821,12,1,8.08,437.00
517654,-0.00,0.00,-0.00,0.00,0.06,0.06,-1.0,0.0,183.2,42.46,1.59,43.222209,-0.051821,12,1,8.08,437.00
517960,-0.00,-0.00,0.00,0.12,0.00,-0.06,-1.0,0.0,183.2,42.46,1.59,43.222209,-0.051821,12,1,8.08,437.00
518266,0.00,0.00,0.00,-0.06,0.06,-0.06,-1.0,0.0,183.2,42.47,1.60,43.222209,-0.051821,12,1,8.08,437.10
518572,-0.01,0.00,0.00,0.06,0.00,0.00,-1.0,0.0,183.2,42.47,1.61,43.222209,-0.051821,12,1,8.08,437.10
518878,0.00,0.00,0.00,-0.06,0.12,0.00,-1.0,0.0,183.2,42.47,1.62,43.222209,-0.051821,12,1,8.08,437.10
519184,-0.00,-0.00,0.00,0.06,0.12,0.12,-1.0,0.0,183.2,42.48,1.62,43.222209,-0.051821,12,1,8.08,437.10
519490,0.00,-0.00,-0.01,-0.06,-0.06,-0.12,-1.0,0.0,183.2,42.48,1.63,43.222209,-0.051821,12,1,8.08,437.10
520102,-0.02,-0.00,-0.00,-0.06,0.00,0.25,-1.0,0.0,183.2,42.49,1.63,43.222209,-0.051822,12,1,8.09,437.20
520408,0.00,0.00,-0.00,0.06,-0.12,0.00,-1.0,0.0,183.2,42.50,1.64,43.222209,-0.051822,12,1,8.09,437.20
520714,0.00,-0.01,0.00,0.06,-0.06,-0.06,-1.0,0.0,183.2,42.50,1.64,43.222209,-0.051822,12,1,8.09,437.20
521020,0.00,-0.00,-0.00,0.12,-0.06,0.00,-1.0,0.0,183.2,42.51,1.64,43.222209,-0.051822,12,1,8.09,437.20
521326,-0.01,-0.00,0.00,-0.06,0.00,-0.06,-1.0,0.0,183.2,42.51,1.64,43.222209,-0.051822,12,1,8.09,437.20
521632,-0.00,-0.00,0.00,0.00,0.06,-0.12,-1.0,0.0,183.2,42.51,1.65,43.222209,-0.051822,12,1,8.09,437.20
521938,-0.01,-0.00,0.01,0.06,0.06,-0.18,-1.0,0.0,183.2,42.51,1.65,43.222209,-0.051822,12,1,8.09,437.20
522244,0.00,0.00,-0.01,0.12,0.06,0.00,-1.0,0.0,183.2,42.52,1.64,43.222209,-0.051822,12,1,8.09,437.20
522856,0.00,-0.01,-0.02,-0.12,0.06,-0.18,-1.0,0.0,183.2,42.53,1.65,43.222209,-0.051822,12,1,8.09,437.20
523162,-0.00,-0.00,0.00,0.00,-0.06,0.06,-1.0,0.0,183.2,42.53,1.64,43.222209,-0.051823,12,1,8.09,437.20
523468,-0.00,-0.00,0.00,0.06,-0.06,-0.06,-1.0,0.0,183.2,42.54,1.64,43.222209,-0.051823,12,1,8.09,437.20
523774,0.00,-0.01,0.00,0.00,-0.06,0.00,-1.0,0.0,183.2,42.54,1.64,43.222209,-0.051823,12,1,8.09,437.20
524080,0.00,0.00,-0.00,0.06,0.06,0.12,-1.0,0.0,183.2,42.55,1.65,43.222209,-0.051823,12,1,8.09,437.20
524692,0.00,-0.01,0.01,-0.06,-0.06,0.12,-1.0,0.0,183.2,42.55,1.66,43.222209,-0.051823,12,1,8.09,437.20
524998,0.00,0.00,-0.00,0.06,0.00,0.06,-1.0,0.0,183.2,42.56,1.66,43.222209,-0.051823,12,1,8.09,437.20
525304,0.00,-0.01,0.00,0.06,0.00,-0.06,-1.0,0.0,183.2,42.56,1.67,43.222209,-0.051823,12,1,8.09,437.20
525610,-0.00,-0.01,0.00,0.06,0.06,0.18,-1.0,0.0,183.2,42.56,1.67,43.222209,-0.051823,12,1,8.09,437.20
525916,-0.00,-0.00,-0.02,0.12,-0.06,0.06,-1.0,0.0,183.2,42.57,1.67,43.222209,-0.051823,12,1,8.09,437.20
526222,-0.00,0.00,-0.03,0.00,0.12,-0.12,-1.0,0.0,183.2,42.57,1.67,43.222209,-0.051823,12,1,8.08,437.20
526528,-0.01,-0.01,0.00,0.06,0.25,0.00,-1.0,0.0,183.2,42.58,1.68,43.222209,-0.051823,12,1,8.08,437.20
526834,-0.00,0.00,0.00,-0.06,0.06,0.00,-1.0,0.0,183.2,42.58,1.68,43.222209,-0.051823,12,1,8.08,437.20
527140,-0.00,0.00,0.00,0.00,-0.06,0.06,-1.0,0.0,183.2,42.58,1.70,43.222209,-0.051823,12,1,8.08,437.20
527446,0.00,-0.00,0.00,0.12,-0.06,-0.12,-1.0,0.0,183.2,42.59,1.69,43.222209,-0.051824,12,1,8.08,437.20
527752,-0.00,-0.02,-0.00,0.06,-0.06,-0.06,-1.0,0.0,183.2,42.59,1.69,43.222209,-0.051824,12,1,8.08,437.29
528058,0.00,-0.01,0.00,0.00,0.00,-0.06,-1.0,0.0,183.2,42.60,1.69,43.222209,-0.051824,12,1,8.08,437.29
528364,0.00,-0.01,-0.01,-0.06,-0.12,-0.06,-1.0,0.0,183.2,42.60,1.70,43.222209,-0.051824,12,1,8.09,437.29
528670,0.00,-0.00,-0.00,0.00,-0.06,0.12,-1.0,0.0,183.2,42.60,1.70,43.222209,-0.051824,12,1,8.09,437.29
528976,-0.01,-0.00,0.00,-0.12,-0.12,-0.06,-1.0,0.0,183.2,42.61,1.69,43.222209,-0.051824,12,1,8.09,437.29
529282,-0.01,0.00,0.00,0.12,0.06,0.06,-1.0,0.0,183.2,42.61,1.69,43.222209,-0.051824,12,1,8.09,437.29
529588,0.12,0.11,0.05,0.18,-0.06,-0.12,-1.0,0.0,183.2,42.61,1.70,43.222209,-0.051824,12,1,8.09,437.29
530200,0.00,-0.01,0.00,-0.18,-0.12,-0.31,-1.0,0.0,183.3,42.62,1.69,43.222209,-0.051824,12,1,8.08,437.29
530506,-0.00,-0.02,0.00,-0.06,-0.06,-0.18,-1.0,0.0,183.3,42.63,1.69,43.222209,-0.051824,12,1,8.08,437.29
530812,0.00,0.00,0.00,0.12,0.12,0.12,-1.0,0.0,183.3,42.63,1.69,43.222209,-0.051824,12,1,8.08,437.29
531118,-0.00,-0.02,0.00,0.06,0.12,0.25,-1.0,0.0,183.3,42.63,1.70,43.222209,-0.051824,12,1,8.08,437.29
531424,-0.01,-0.00,-0.03,0.00,0.06,-0.06,-1.0,0.0,183.3,42.64,1.69,43.222209,-0.051824,12,1,8.08,437.29
531730,-0.00,0.00,0.00,-0.25,0.06,-0.06,-1.0,0.0,183.3,42.64,1.69,43.222209,-0.051824,12,1,8.08,437.39
532036,0.00,-0.00,0.00,-0.06,-0.06,-0.06,-1.0,0.0,183.3,42.64,1.69,43.222209,-0.051824,12,1,8.08,437.39
532342,-0.00,0.00,0.00,0.00,0.25,0.00,-1.0,0.0,183.3,42.65,1.69,43.222209,-0.051823,12,1,8.09,437.39
532648,-0.01,-0.00,0.00,0.06,-0.06,-0.06,-1.0,0.0,183.3,42.65,1.69,43.222209,-0.051823,12,1,8.09,437.50
532954,-0.00,0.00,-0.00,0.06,0.06,0.12,-1.0,0.0,183.3,42.65,1.69,43.222209,-0.051823,12,1,8.09,437.50
533260,0.00,0.00,0.00,0.00,0.06,0.06,-1.0,0.0,183.3,42.66,1.69,43.222209,-0.051823,12,1,8.08,437.50
533566,0.00,0.00,-0.00,-0.06,0.00,0.00,-1.0,0.0,183.3,42.66,1.70,43.222209,-0.051823,12,1,8.08,437.50
534178,-0.00,-0.01,0.00,0.00,0.12,0.00,-1.0,0.0,183.3,42.67,1.69,43.222209,-0.051823,12,1,8.08,437.50
534484,-0.00,-0.00,0.00,0.18,-0.06,-0.06,-1.0,0.0,183.3,42.67,1.70,43.222209,-0.051824,12,1,8.08,437.60
534790,0.00,-0.00,-0.00,-0.18,0.18,-0.06,-1.0,0.0,183.3,42.68,1.71,43.222209,-0.051824,12,1,8.08,437.60
535096,0.00,0.00,-0.01,-0.06,0.00,0.00,-1.0,0.0,183.3,42.68,1.70,43.222209,-0.051824,12,1,8.08,437.60
535402,-0.02,0.00,0.00,-0.06,0.12,0.18,-1.0,0.0,183.3,42.68,1.70,43.222209,-0.051824,12,1,8.08,437.60
535708,-0.01,-0.00,0.00,0.00,-0.12,-0.06,-1.0,0.0,183.3,42.69,1.70,43.222209,-0.051824,12,1,8.08,437.60
536014,-0.01,0.00,0.00,-0.06,-0.06,-0.06,-1.0,0.0,183.3,42.69,1.70,43.222209,-0.051824,12,1,8.08,437.60
536320,-0.02,0.00,0.00,0.00,0.06,0.06,-1.0,0.0,183.3,42.69,1.70,43.222209,-0.051824,12,1,8.09,437.60
536626,-0.00,0.00,0.00,0.00,-0.12,0.06,-1.0,0.0,183.3,42.70,1.70,43.222209,-0.051824,12,1,8.09,437.60
537238,0.00,-0.00,-0.01,0.06,-0.06,0.00,-1.0,0.0,183.3,42.70,1.71,43.222209,-0.051824,12,1,8.09,437.60
537544,-0.00,-0.00,-0.00,0.06,-0.25,-0.06,-1.0,0.0,183.3,42.71,1.71,43.222209,-0.051824,12,1,8.07,437.70
537850,0.00,-0.00,-0.00,0.18,0.25,0.00,-1.0,0.0,183.3,42.71,1.71,43.222209,-0.051824,12,1,8.07,437.70
538156,-0.00,-0.00,0.00,-0.06,0.00,0.06,-1.0,0.0,183.3,42.72,1.72,43.222209,-0.051824,12,1,8.07,437.70
538462,0.00,0.00,0.01,-0.06,-0.06,-0.06,-1.0,0.0,183.3,42.72,1.72,43.222209,-0.051824,12,1,8.09,437.70
538768,0.00,0.00,0.00,0.06,0.00,0.12,-1.0,0.0,183.3,42.72,1.71,43.222209,-0.051824,12,1,8.09,437.70
539074,0.00,-0.01,-0.00,0.00,-0.06,0.00,-1.0,0.0,183.3,42.73,1.71,43.222209,-0.051824,12,1,8.09,437.70
539380,0.00,0.00,0.00,-0.06,0.00,0.00,-1.0,0.0,183.3,42.73,1.72,43.222209,-0.051824,12,1,8.08,437.70
539686,0.00,0.00,0.02,0.06,0.06,0.18,-1.0,0.0,183.3,42.73,1.72,43.222209,-0.051824,12,1,8.08,437.70
539992,0.00,-0.01,-0.01,-0.12,-0.06,0.06,-1.0,0.0,183.3,42.74,1.72,43.222209,-0.051824,12,1,8.08,437.70
540298,-0.00,0.00,-0.01,-0.12,0.12,0.12,-1.0,0.0,183.3,42.74,1.72,43.222209,-0.051824,12,1,8.09,437.70
540604,0.00,0.00,-0.02,0.00,0.00,0.18,-1.0,0.0,183.3,42.74,1.72,43.222209,-0.051824,12,1,8.09,437.70
540910,0.00,-0.00,-0.00,-0.06,0.00,-0.06,-1.0,0.0,183.3,42.75,1.72,43.222209,-0.051824,12,1,8.09,437.70
541522,0.00,0.00,0.00,0.06,-0.12,0.06,-1.0,0.0,183.3,42.76,1.72,43.222209,-0.051824,12,1,8.09,437.70
542134,-0.00,0.00,0.00,0.00,0.18,-0.12,-1.0,0.0,183.3,42.76,1.73,43.222209,-0.051824,12,1,8.09,437.70
542440,0.00,-0.01,0.00,-0.06,0.12,-0.06,-1.0,0.0,183.3,42.76,1.74,43.222209,-0.051824,12,1,8.08,437.70
542746,0.00,-0.01,0.00,0.00,0.06,0.12,-1.0,0.0,183.3,42.77,1.73,43.222209,-0.051824,12,1,8.08,437.70
543052,-0.00,-0.00,-0.00,0.00,-0.06,-0.06,-1.0,0.0,183.3,42.77,1.74,43.222209,-0.051824,12,1,8.08,437.70
543358,0.00,0.00,0.00,0.06,-0.18,-0.12,-1.0,0.0,183.3,42.78,1.74,43.222209,-0.051824,12,1,8.08,437.70
543664,0.00,-0.00,0.00,-0.06,0.06,0.00,-1.0,0.0,183.3,42.78,1.73,43.222209,-0.051824,12,1,8.08,437.70
543970,-0.00,0.00,-0.00,0.00,-0.25,0.00,-1.0,0.0,183.3,42.78,1.73,43.222209,-0.051824,12,1,8.08,437.79
544276,-0.00,0.00,0.00,0.06,0.00,0.00,-1.0,0.0,183.3,42.79,1.73,43.222209,-0.051824,12,1,8.08,437.79
544582,0.00,-0.00,0.00,0.06,-0.06,-0.06,-1.0,0.0,183.3,42.79,1.73,43.222209,-0.051824,12,1,8.08,437.79
544888,0.00,-0.00,-0.01,0.00,0.18,0.18,-1.0,0.0,183.3,42.79,1.73,43.222209,-0.051824,12,1,8.08,437.79
545500,0.00,-0.01,0.00,0.06,-0.25,0.25,-1.0,0.0,183.3,42.80,1.73,43.222209,-0.051824,12,1,8.08,437.89
545806,0.00,-0.02,-0.00,0.06,0.12,0.12,-1.0,0.0,183.3,42.80,1.74,43.222209,-0.051824,12,1,8.08,437.89
546112,0.00,0.00,-0.01,0.06,-0.12,0.06,-1.0,0.0,183.3,42.81,1.74,43.222209,-0.051824,12,1,8.08,437.89
546418,0.00,-0.00,0.00,0.12,0.12,0.18,-1.0,0.0,183.3,42.81,1.74,43.222209,-0.051824,12,1,8.08,437.89
546724,0.00,0.00,0.00,-0.12,0.00,0.06,-1.0,0.0,183.3,42.81,1.73,43.222209,-0.051824,12,1,8.08,438.00
547336,-0.00,0.00,0.00,-0.06,0.12,0.06,-1.0,0.0,183.3,42.82,1.73,43.222209,-0.051824,12,1,8.08,438.00
547642,-0.01,-0.01,0.00,0.06,-0.12,0.06,-1.0,0.0,183.3,42.82,1.72,43.222209,-0.051824,12,1,8.09,438.00
547948,-0.00,-0.02,0.00,-0.06,0.18,0.00,-1.0,0.0,183.3,42.83,1.71,43.222209,-0.051824,12,1,8.09,438.10
548254,0.00,0.00,-0.00,0.12,0.00,0.12,-1.0,0.0,183.3,42.83,1.72,43.222209,-0.051824,12,1,8.09,438.10
548560,0.00,-0.00,-0.00,-0.06,-0.12,0.18,-1.0,0.0,183.3,42.83,1.71,43.222209,-0.051825,12,1,8.08,438.10
548866,-0.02,-0.01,0.01,0.06,0.00,0.12,-1.0,0.0,183.3,42.84,1.72,43.222209,-0.051825,12,1,8.08,438.10
549172,0.00,0.00,0.00,0.12,0.00,-0.12,-1.0,0.0,183.3,42.84,1.71,43.222209,-0.051825,12,1,8.08,438.10
549784,0.00,-0.00,0.00,0.06,0.06,-0.06,-1.0,0.0,183.3,42.85,1.71,43.222209,-0.051825,12,1,8.08,438.20
550090,-0.00,-0.00,0.00,0.00,0.25,0.12,-1.0,0.0,183.3,42.85,1.71,43.222209,-0.051825,12,1,8.08,438.20
550396,-0.00,-0.00,-0.00,0.00,0.12,0.00,-1.0,0.0,183.3,42.85,1.71,43.222209,-0.051825,12,1,8.09,438.20
550702,0.00,0.00,0.00,0.06,0.06,-0.06,-1.0,0.0,183.3,42.86,1.71,43.222209,-0.051825,12,1,8.09,438.29
551008,-0.01,0.00,-0.00,-0.06,0.06,0.00,-1.0,0.0,183.3,42.86,1.71,43.222209,-0.051825,12,1,8.09,438.29
551314,0.00,0.00,0.00,0.00,-0.06,0.18,-1.0,0.0,183.3,42.86,1.71,43.222209,-0.051825,12,1,8.09,438.29
551620,-0.02,0.00,0.01,0.00,0.06,-0.18,-1.0,0.0,183.3,42.87,1.72,43.222209,-0.051825,12,1,8.08,438.29
551926,-0.00,-0.02,0.00,-0.12,-0.12,-0.12,-1.0,0.0,183.3,42.87,1.72,43.222209,-0.051825,12,1,8.08,438.29
552232,0.00,0.00,-0.00,0.06,-0.25,-0.06,-1.0,0.0,183.3,42.87,1.71,43.222209,-0.051825,12,1,8.08,438.29
552844,0.00,0.00,0.00,0.12,-0.12,-0.06,-1.0,0.0,183.3,42.88,1.72,43.222209,-0.051825,12,1,8.08,438.39
553150,-0.01,-0.00,0.00,0.12,0.00,0.18,-1.0,0.0,183.3,42.88,1.73,43.222209,-0.051825,12,1,8.08,438.39
553456,-0.01,-0.01,0.00,-0.12,0.00,0.00,-1.0,0.0,183.3,42.89,1.72,43.222209,-0.051825,12,1,8.09,438.39
553762,0.00,-0.00,-0.01,0.06,0.06,0.37,-1.0,0.0,183.3,42.89,1.73,43.222209,-0.051825,12,1,8.09,438.39
554068,-0.00,-0.00,0.00,0.06,0.06,0.00,-1.0,0.0,183.3,42.89,1.72,43.222209,-0.051825,12,1,8.09,438.39
554374,-0.00,-0.01,0.00,0.06,0.00,0.06,-1.0,0.0,183.3,42.90,1.72,43.222209,-0.051825,12,1,8.09,438.50
554680,-0.00,0.00,0.00,0.06,-0.18,0.00,-1.0,0.0,183.3,42.90,1.72,43.222209,-0.051826,12,1,8.08,438.50
554986,-0.00,-0.01,0.00,0.12,0.00,0.06,-1.0,0.0,183.3,42.90,1.73,43.222209,-0.051826,12,1,8.08,438.50
555292,0.00,-0.01,-0.01,0.00,-0.12,-0.06,-1.0,0.0,183.3,42.91,1.73,43.222209,-0.051826,12,1,8.08,438.50
555904,-0.25,-0.51,-0.33,-3.43,8.68,1.87,-1.1,0.0,183.1,42.91,1.72,43.222209,-0.051826,12,1,8.08,438.50
556210,-0.11,0.09,0.07,0.06,-0.06,0.00,-1.0,0.0,183.0,42.92,1.72,43.222209,-0.051826,12,1,8.08,438.50
556516,0.01,-0.05,0.01,0.12,-0.12,0.25,-1.0,0.0,183.0,42.92,1.71,43.222209,-0.051826,12,1,8.08,438.50
556822,0.00,-0.00,0.01,-0.12,-0.12,0.00,-1.0,0.0,183.0,42.93,1.70,43.222209,-0.051826,12,1,8.08,438.60
557128,-0.03,0.02,0.00,0.00,0.06,-0.06,-1.0,0.0,183.0,42.93,1.71,43.222209,-0.051826,12,1,8.08,438.60
557434,-0.01,-0.00,0.00,0.06,0.06,0.06,-1.0,0.0,183.0,42.93,1.71,43.222209,-0.051826,12,1,8.08,438.60
557740,-0.00,-0.01,-0.02,-0.12,-0.12,0.00,-1.0,0.0,183.0,42.94,1.70,43.222209,-0.051826,12,1,8.08,438.60
558352,-0.01,-0.00,0.00,0.00,0.06,0.00,-1.0,0.0,183.0,42.94,1.69,43.222209,-0.051826,12,1,8.08,438.60
558658,-0.00,0.00,0.00,0.12,-0.12,-0.31,-1.0,0.0,183.0,42.94,1.70,43.222209,-0.051826,12,1,8.08,438.60
558964,0.00,-0.00,0.00,0.00,0.18,0.12,-1.0,0.0,183.0,42.95,1.70,43.222209,-0.051826,12,1,8.08,438.60
559270,0.00,0.00,0.01,0.00,-0.18,-0.06,-1.0,0.0,183.0,42.95,1.69,43.222209,-0.051826,12,1,8.08,438.60
559576,-0.00,-0.00,-0.00,0.00,0.00,0.00,-1.0,0.0,183.0,42.95,1.68,43.222209,-0.051827,12,1,8.08,438.70
559882,-0.01,0.00,0.00,0.06,-0.06,-0.25,-1.0,0.0,183.0,42.96,1.68,43.222209,-0.051827,12,1,8.08,438.70
560188,0.00,-0.00,0.00,0.18,-0.12,0.00,-1.0,0.0,183.0,42.96,1.68,43.222209,-0.051827,12,1,8.08,438.70
560494,0.00,-0.01,0.02,0.00,0.06,0.00,-1.0,0.0,183.0,42.96,1.67,43.222209,-0.051827,12,1,8.08,438.70
560800,-0.02,0.00,-0.02,0.12,-0.06,-0.12,-1.0,0.0,183.0,42.97,1.68,43.222209,-0.051827,12,1,8.08,438.70
561412,-0.00,-0.01,-0.02,-0.06,0.06,0.18,-1.0,0.0,183.0,42.97,1.68,43.222209,-0.051827,12,1,8.08,438.70
561718,-0.03,-0.02,0.00,0.00,0.06,0.06,-1.0,0.0,183.0,42.98,1.68,43.222209,-0.051827,12,1,8.08,438.70
562024,0.00,-0.01,-0.00,-0.12,0.00,-0.12,-1.0,0.0,183.0,42.98,1.68,43.222209,-0.051827,12,1,8.08,438.70
562330,0.00,0.00,-0.00,0.06,-0.12,0.06,-1.0,0.0,183.0,42.98,1.67,43.222209,-0.051827,12,1,8.08,438.70
562636,-0.02,-0.01,0.00,-0.06,0.12,-0.12,-1.0,0.0,183.0,42.99,1.67,43.222209,-0.051827,12,1,8.09,438.70
562942,-0.01,-0.03,0.00,0.12,-0.18,-0.18,-1.0,0.0,183.0,42.99,1.68,43.222209,-0.051827,12,1,8.09,438.70
563248,0.00,-0.01,0.00,0.00,-0.18,-0.12,-1.0,0.0,183.0,42.99,1.67,43.222209,-0.051827,12,1,8.09,438.70
563554,-0.00,-0.02,0.00,0.00,0.12,-0.37,-1.0,0.0,183.0,43.00,1.69,43.222209,-0.051827,12,1,8.09,438.70
564166,-0.02,-0.01,-0.00,-0.06,0.00,0.18,-1.0,0.0,183.0,43.00,1.68,43.222209,-0.051827,12,1,8.09,438.70
564472,-0.01,0.00,0.00,0.00,0.12,0.12,-1.0,0.0,183.0,43.00,1.68,43.222209,-0.051827,12,1,8.09,438.70
564778,-0.01,0.00,0.00,0.00,0.18,-0.12,-1.0,0.0,183.0,43.01,1.67,43.222209,-0.051828,12,1,8.09,438.70
565084,-0.00,0.00,-0.01,0.00,-0.18,0.12,-1.0,0.0,183.0,43.01,1.68,43.222209,-0.051828,12,1,8.09,438.70
565390,-0.00,0.00,0.00,0.00,-0.12,-0.12,-1.0,0.0,183.0,43.01,1.67,43.222209,-0.051828,12,1,8.09,438.70
565696,0.00,0.00,0.00,-0.06,-0.12,0.00,-1.0,0.0,183.0,43.02,1.68,43.222209,-0.051828,12,1,8.08,438.70
566308,-0.00,0.00,0.00,0.00,0.06,-0.18,-1.0,0.0,183.0,43.03,1.67,43.222209,-0.051828,12,1,8.08,438.70
566614,-0.01,-0.01,0.00,-0.12,-0.18,0.06,-1.0,0.0,183.0,43.03,1.66,43.222209,-0.051829,12,1,8.08,438.70
566920,-0.00,0.00,-0.01,0.00,-0.06,0.06,-1.0,0.0,183.0,43.03,1.66,43.222209,-0.051829,12,1,8.08,438.70
567226,-0.01,0.00,0.00,-0.06,0.00,0.06,-1.0,0.0,183.0,43.04,1.65,43.222209,-0.051829,12,1,8.08,438.70
567532,-0.00,-0.00,0.00,0.18,0.18,0.06,-1.0,0.0,183.0,43.04,1.65,43.222209,-0.051829,12,1,8.08,438.70
567838,-0.02,-0.00,-0.00,-0.06,-0.12,-0.18,-1.0,0.0,183.0,43.04,1.64,43.222209,-0.051829,12,1,8.08,438.70
568144,0.00,-0.00,0.00,-0.06,0.00,0.37,-1.0,0.0,183.0,43.04,1.65,43.222209,-0.051829,12,1,8.08,438.70
568450,-0.00,-0.00,-0.00,-0.06,0.06,0.18,-1.0,0.0,183.0,43.05,1.65,43.222209,-0.051829,12,1,8.08,438.70
569062,-0.00,-0.01,0.00,-0.06,-0.06,-0.06,-1.0,0.0,183.0,43.06,1.65,43.222209,-0.051829,12,1,8.08,438.60
569368,-0.00,-0.01,-0.02,-0.12,0.12,0.06,-1.0,0.0,183.0,43.06,1.66,43.222209,-0.051829,12,1,8.08,438.60
569674,-0.01,-0.00,-0.00,0.00,-0.25,-0.12,-1.0,0.0,183.0,43.06,1.65,43.222209,-0.051829,12,1,8.09,438.60
569980,-0.05,-0.03,0.00,-0.12,0.06,0.06,-1.0,0.0,183.0,43.06,1.64,43.222209,-0.051829,12,1,8.09,438.60
570286,-0.07,-0.07,-0.05,0.37,0.25,0.12,-1.0,0.0,183.0,43.07,1.64,43.222209,-0.051829,12,1,8.09,438.60
570592,0.01,0.05,0.10,-0.12,-1.68,0.06,-1.0,-0.0,183.0,43.07,1.65,43.222209,-0.051830,12,1,8.08,438.60
570898,0.11,-0.11,-1.45,-1.50,0.43,0.00,-1.0,-0.0,183.0,43.07,1.65,43.222209,-0.051830,12,1,8.08,438.60
571510,0.05,0.09,0.05,0.75,-0.18,-0.25,-0.9,0.0,183.1,43.08,1.62,43.222209,-0.051830,12,1,8.08,438.60
571816,-0.18,-0.20,-0.05,-0.31,0.75,0.06,-1.0,0.0,183.1,43.08,1.63,43.222209,-0.051830,12,1,8.08,438.60
572122,-0.05,-0.00,-0.00,0.00,0.18,0.12,-1.0,0.0,183.1,43.08,1.63,43.222209,-0.051830,12,1,8.08,438.60
572428,-0.01,0.01,-0.00,0.18,0.00,-0.25,-1.0,0.0,183.1,43.09,1.63,43.222209,-0.051830,12,1,8.08,438.60
572734,-0.13,-0.19,0.27,0.00,0.00,-0.25,-1.0,0.0,183.1,43.09,1.63,43.222209,-0.051830,12,1,8.08,438.60
573040,-0.07,-0.00,-0.09,-0.37,0.31,0.06,-1.0,0.0,183.1,43.10,1.62,43.222209,-0.051830,12,1,8.08,438.70
573346,0.01,0.07,0.00,-0.31,0.50,0.25,-0.9,0.0,183.1,43.10,1.61,43.222209,-0.051830,12,1,8.08,438.60
573652,0.03,-0.20,-0.40,0.06,0.18,-0.31,-0.9,0.0,183.1,43.10,1.62,43.222209,-0.051829,12,1,8.08,438.70
573958,-0.18,0.13,0.11,0.25,0.75,0.37,-0.9,0.0,183.1,43.11,1.61,43.222209,-0.051829,12,1,8.08,438.70
574570,0.07,0.11,0.07,0.87,-0.37,-0.18,-1.0,0.0,183.1,43.11,1.62,43.222209,-0.051829,12,1,8.08,438.70
574876,0.00,-0.00,-0.05,0.75,1.62,0.00,-1.0,0.0,183.1,43.11,1.61,43.222209,-0.051829,12,1,8.08,438.70
575182,-0.02,0.00,0.01,0.18,0.06,-0.18,-1.0,0.0,183.1,43.12,1.62,43.222209,-0.051829,12,1,8.08,438.70
575488,0.02,0.00,0.05,0.00,0.62,0.25,-1.0,0.0,183.1,43.12,1.63,43.222209,-0.051829,12,1,8.08,438.70
575794,0.11,0.15,0.00,0.37,-1.12,-0.12,-1.0,0.0,183.1,43.12,1.62,43.222209,-0.051829,12,1,8.08,438.70
576100,0.00,0.01,-0.11,0.31,-0.18,0.06,-1.0,0.0,183.1,43.13,1.63,43.222209,-0.051829,12,1,8.08,438.70
576406,-0.09,0.02,-0.10,0.56,0.62,0.00,-1.0,0.0,183.1,43.13,1.62,43.222209,-0.051829,12,1,8.08,438.70
576712,-0.01,-0.00,0.01,0.12,0.12,0.06,-1.0,0.0,183.1,43.13,1.63,43.222209,-0.051829,12,1,8.08,438.70
577018,0.01,-0.00,-0.00,-0.06,-0.31,-0.06,-1.0,0.0,183.1,43.14,1.62,43.222209,-0.051829,12,1,8.08,438.70
577630,-0.07,0.07,0.41,1.00,-0.31,0.00,-1.0,0.0,183.1,43.14,1.65,43.222209,-0.051829,12,1,8.08,438.70
577936,-0.00,-0.00,-0.05,-0.18,-0.12,-0.12,-1.0,0.0,183.1,43.15,1.65,43.222209,-0.051829,12,1,8.08,438.70
578548,-0.02,0.00,-0.09,0.18,-0.31,-0.06,-1.0,0.0,183.1,43.15,1.65,43.222209,-0.051829,12,1,8.08,438.70
578854,-0.05,0.01,0.00,0.18,0.06,0.12,-0.9,0.0,183.1,43.15,1.66,43.222209,-0.051829,12,1,8.08,438.70
579160,-0.07,-0.10,-0.19,0.37,-0.06,-0.25,-1.0,0.0,183.1,43.16,1.67,43.222209,-0.051829,12,1,8.08,438.70
579466,-0.51,-0.00,-0.54,1.18,3.56,0.37,-1.0,0.0,183.1,43.16,1.66,43.222209,-0.051829,12,1,8.08,438.70
579772,-0.10,-0.15,-0.11,0.18,-0.06,-0.06,-0.9,0.0,183.1,43.16,1.66,43.222209,-0.051829,12,1,8.08,438.70
580078,-0.09,0.02,0.09,0.37,0.00,-0.31,-0.9,0.0,183.1,43.17,1.66,43.222209,-0.051829,12,1,8.08,438.70
580690,-0.03,-0.02,0.00,0.06,-0.06,-0.06,-0.9,0.0,183.1,43.17,1.65,43.222209,-0.051828,12,1,8.08,438.70
580996,-0.02,-0.02,-0.01,0.00,-0.18,0.12,-0.9,0.0,183.1,43.18,1.65,43.222209,-0.051828,12,1,8.08,438.70
581302,-0.02,-0.01,0.00,0.00,-0.06,0.00,-0.9,0.0,183.1,43.18,1.65,43.222209,-0.051828,12,1,8.08,438.70
581608,-0.03,-0.01,0.00,-0.12,0.00,0.00,-0.9,0.0,183.1,43.18,1.66,43.222209,-0.051828,12,1,8.08,438.70
581914,-0.02,-0.02,0.00,0.06,-0.12,0.06,-0.9,0.0,183.1,43.18,1.66,43.222209,-0.051828,12,1,8.08,438.70
582220,-0.05,0.00,-0.00,0.12,-0.12,0.06,-0.9,0.0,183.1,43.19,1.67,43.222209,-0.051828,12,1,8.08,438.70
582526,-0.01,-0.03,0.00,0.00,0.06,-0.06,-0.9,0.0,183.1,43.19,1.67,43.222209,-0.051828,12,1,8.08,438.70
583138,-0.03,0.00,0.00,0.06,-0.12,0.12,-0.9,0.0,183.1,43.20,1.68,43.222209,-0.051828,12,1,8.08,438.70
583444,-0.03,-0.00,0.00,0.00,0.06,0.00,-0.9,0.0,183.1,43.20,1.68,43.222209,-0.051828,12,1,8.08,438.70
583750,-0.01,0.00,0.00,-0.12,-0.06,0.06,-0.9,0.0,183.1,43.21,1.68,43.222209,-0.051828,12,1,8.08,438.70
584056,-0.00,0.00,-0.01,0.06,0.06,-0.06,-0.9,0.0,183.1,43.21,1.68,43.222209,-0.051828,12,1,8.08,438.70
584362,-0.03,-0.01,-0.00,-0.12,-0.12,0.06,-0.9,0.0,183.1,43.21,1.67,43.222209,-0.051828,12,1,8.08,438.70
584668,-0.03,-0.01,0.00,-0.06,0.06,-0.06,-0.9,0.0,183.1,43.21,1.67,43.222209,-0.051828,12,1,8.08,438.70
584974,-0.03,-0.01,-0.00,0.00,-0.18,0.25,-0.9,0.0,183.1,43.22,1.67,43.222209,-0.051827,12,1,8.08,438.70
585280,-0.03,-0.02,0.01,0.00,0.00,-0.18,-0.9,0.0,183.1,43.22,1.66,43.222209,-0.051827,12,1,8.08,438.70
585586,-0.02,0.00,0.00,-0.06,0.06,-0.06,-0.9,0.0,183.1,43.22,1.66,43.222209,-0.051827,12,1,8.08,438.70
585892,-0.02,-0.00,0.00,0.06,0.00,-0.12,-0.9,0.0,183.1,43.23,1.66,43.222209,-0.051827,12,1,8.08,438.70
586504,-0.01,0.00,0.00,-0.12,-0.06,-0.25,-0.9,0.0,183.1,43.23,1.66,43.222209,-0.051827,12,1,8.08,438.70
586810,-0.02,0.00,0.00,-0.06,-0.06,0.00,-0.9,0.0,183.1,43.23,1.65,43.222209,-0.051827,12,1,8.08,438.70
587116,-0.03,-0.00,0.00,0.12,0.06,0.00,-0.9,0.0,183.1,43.24,1.66,43.222209,-0.051827,12,1,8.08,438.70
587422,-0.05,0.00,0.00,0.00,0.00,0.00,-0.9,0.0,183.1,43.24,1.65,43.222209,-0.051827,12,1,8.08,438.70
587728,-0.00,-0.00,-0.01,0.06,0.00,-0.06,-0.9,0.0,183.1,43.24,1.65,43.222209,-0.051827,12,1,8.08,438.70
588034,-0.03,-0.00,0.00,0.00,-0.12,0.18,-0.9,0.0,183.1,43.25,1.66,43.222209,-0.051826,12,1,8.08,438.60
588340,-0.02,-0.00,0.00,0.12,-0.06,-0.12,-0.9,0.0,183.1,43.25,1.66,43.222209,-0.051826,12,1,8.08,438.60
588952,-0.02,-0.01,-0.01,-0.18,0.12,-0.06,-0.9,0.0,183.1,43.26,1.66,43.222209,-0.051826,12,1,8.08,438.60
589258,-0.05,0.00,0.00,-0.06,0.12,-0.12,-0.9,0.0,183.1,43.26,1.66,43.222209,-0.051826,12,1,8.08,438.60
589564,-0.02,0.00,0.00,-0.12,0.00,-0.06,-0.9,0.0,183.1,43.26,1.65,43.222209,-0.051826,12,1,8.08,438.60
589870,-0.00,0.00,-0.03,-0.06,0.00,0.00,-0.9,0.0,183.1,43.26,1.65,43.222209,-0.051826,12,1,8.08,438.60
590176,-0.02,0.00,-0.00,0.00,-0.06,0.06,-0.9,0.0,183.1,43.27,1.63,43.222209,-0.051826,12,1,8.08,438.60
590788,0.02,-0.01,0.00,-0.25,-0.25,0.00,-0.9,0.0,183.1,43.28,1.62,43.222209,-0.051826,12,1,8.08,438.50
591094,-0.02,-0.01,0.00,-0.12,0.06,0.00,-0.9,0.0,183.1,43.28,1.64,43.222209,-0.051826,12,1,8.08,438.50
591400,-0.02,-0.01,0.00,0.00,0.06,-0.06,-0.9,0.0,183.1,43.28,1.65,43.222209,-0.051826,12,1,8.08,438.50
591706,-0.01,0.00,0.00,0.00,-0.12,0.06,-0.9,0.0,183.1,43.28,1.65,43.222209,-0.051826,12,1,8.08,438.50
592318,-0.03,-0.00,0.00,-0.06,0.06,0.31,-0.9,0.0,183.1,43.29,1.69,43.222209,-0.051826,12,1,8.08,438.50
592624,-0.02,0.00,-0.00,-0.12,0.06,-0.12,-0.9,0.0,183.1,43.29,1.69,43.222209,-0.051826,12,1,8.08,438.50
592930,-0.02,-0.02,0.00,0.06,0.06,-0.06,-0.9,0.0,183.1,43.29,1.69,43.222209,-0.051825,12,1,8.08,438.50
593236,-0.02,-0.02,-0.00,0.00,-0.12,0.00,-0.9,0.0,183.1,43.30,1.69,43.222209,-0.051825,12,1,8.08,438.50
593542,-0.01,0.00,0.00,0.00,0.25,0.00,-0.9,0.0,183.1,43.30,1.68,43.222209,-0.051825,12,1,8.08,438.50
593848,-0.01,-0.00,-0.00,0.12,0.06,-0.18,-0.9,0.0,183.1,43.30,1.66,43.222209,-0.051825,12,1,8.08,438.50
594154,-0.02,0.00,0.00,0.06,0.00,-0.06,-0.9,0.0,183.1,43.31,1.67,43.222209,-0.051825,12,1,8.08,438.50
594460,-0.02,-0.01,0.00,0.06,-0.18,-0.06,-0.9,0.0,183.1,43.31,1.68,43.222209,-0.051825,12,1,8.08,438.50
594766,-0.01,-0.01,0.00,0.00,-0.18,0.25,-0.9,0.0,183.1,43.31,1.68,43.222209,-0.051825,12,1,8.08,438.50
595378,-0.03,-0.01,0.00,0.00,0.12,0.12,-0.9,0.0,183.1,43.32,1.70,43.222209,-0.051825,12,1,8.08,438.50
595684,-0.03,-0.00,0.00,-0.06,-0.06,0.06,-0.9,0.0,183.1,43.32,1.69,43.222209,-0.051825,12,1,8.08,438.50
595990,-0.02,-0.00,-0.01,0.00,0.00,0.12,-0.9,0.0,183.1,43.32,1.70,43.222209,-0.051824,12,1,8.08,438.50
596296,-0.03,0.00,0.00,0.12,0.00,0.18,-0.9,0.0,183.1,43.33,1.70,43.222209,-0.051824,12,1,8.08,438.50
596602,-0.05,-0.00,-0.00,0.00,0.00,-0.12,-0.9,0.0,183.1,43.33,1.71,43.222209,-0.051824,12,1,8.08,438.50
596908,-0.02,0.00,0.00,0.00,-0.12,0.12,-0.9,0.0,183.1,43.33,1.72,43.222209,-0.051824,12,1,8.08,438.50
597214,-0.02,-0.00,0.00,0.06,0.25,-0.06,-0.9,0.0,183.1,43.34,1.71,43.222209,-0.051824,12,1,8.08,438.50
597520,-0.03,0.00,0.00,-0.12,-0.12,0.00,-0.9,0.0,183.1,43.34,1.71,43.222209,-0.051824,12,1,8.08,438.50
597826,-0.01,-0.00,0.00,-0.06,0.18,-0.12,-0.9,0.0,183.1,43.34,1.72,43.222209,-0.051824,12,1,8.08,438.50
598132,-0.02,-0.00,0.00,0.12,-0.06,-0.12,-0.9,0.0,183.1,43.35,1.71,43.222209,-0.051824,12,1,8.08,438.50
598744,-0.01,-0.01,0.00,0.06,0.06,0.00,-0.9,0.0,183.1,43.35,1.70,43.222209,-0.051824,12,1,8.08,438.50
599356,-0.03,0.00,0.00,-0.12,-0.06,0.18,-0.9,0.0,183.1,43.36,1.70,43.222209,-0.051824,12,1,8.08,438.50
599662,-0.00,0.00,-0.00,-0.12,0.06,-0.06,-0.9,0.0,183.1,43.36,1.70,43.222209,-0.051824,12,1,8.08,438.50
599968,-0.01,0.00,0.00,-0.06,0.00,0.18,-0.9,0.0,183.1,43.36,1.70,43.222209,-0.051824,12,1,8.08,438.50
600274,-0.05,-0.00,0.00,-0.06,-0.06,0.12,-0.9,0.0,183.1,43.37,1.71,43.222209,-0.051824,12,1,8.08,438.50
600886,-0.02,-0.00,0.00,0.00,-0.12,0.00,-0.9,0.0,183.1,43.37,1.69,43.222209,-0.051823,12,1,8.08,438.50
601192,-0.01,0.00,0.00,0.18,-0.18,-0.18,-0.9,0.0,183.1,43.38,1.69,43.222209,-0.051823,12,1,8.08,438.50
601498,-0.01,-0.01,-0.00,0.00,-0.06,0.06,-0.9,0.0,183.1,43.38,1.69,43.222209,-0.051823,12,1,8.08,438.60
601804,-0.02,0.00,-0.01,0.00,-0.12,0.12,-0.9,0.0,183.1,43.38,1.70,43.222209,-0.051823,12,1,8.08,438.60
602110,-0.03,-0.00,-0.00,-0.06,0.12,0.06,-0.9,0.0,183.1,43.38,1.69,43.222209,-0.051823,12,1,8.08,438.60
602416,-0.03,0.00,-0.02,0.06,0.06,0.12,-0.9,0.0,183.1,43.38,1.69,43.222209,-0.051823,12,1,8.08,438.60
602722,-0.05,-0.02,0.00,0.06,0.06,-0.06,-0.9,0.0,183.1,43.39,1.69,43.222209,-0.051823,12,1,8.08,438.60
603334,-0.01,0.00,0.00,-0.06,-0.06,0.00,-0.9,0.0,183.1,43.40,1.68,43.222209,-0.051823,12,1,8.08,438.70
603640,-0.05,-0.02,0.00,0.06,-0.06,-0.12,-0.9,0.0,183.1,43.40,1.68,43.222209,-0.051823,12,1,8.08,438.70
603946,-0.01,-0.00,0.00,0.00,-0.12,-0.12,-0.9,0.0,183.1,43.40,1.69,43.222209,-0.051822,12,1,8.08,438.70
604252,-0.05,-0.01,0.00,0.18,0.00,-0.12,-0.9,0.0,183.1,43.40,1.68,43.222209,-0.051822,12,1,8.08,438.70
604558,-0.02,0.00,0.00,0.00,0.12,0.00,-0.9,0.0,183.1,43.41,1.67,43.222209,-0.051822,12,1,8.08,438.70
604864,-0.02,0.00,-0.00,0.06,0.00,-0.12,-0.9,0.0,183.1,43.41,1.68,43.222209,-0.051822,12,1,8.08,438.70
605170,-0.03,0.00,-0.00,0.00,-0.12,0.06,-0.9,0.0,183.1,43.41,1.67,43.222209,-0.051822,12,1,8.08,438.70
605476,-0.02,0.00,0.00,0.18,0.00,-0.12,-0.9,0.0,183.1,43.41,1.66,43.222209,-0.051822,12,1,8.08,438.70
605782,-0.02,0.00,0.00,0.06,0.00,0.12,-0.9,0.0,183.1,43.42,1.67,43.222209,-0.051822,12,1,8.08,438.79
606088,-0.02,-0.01,0.00,0.12,-0.18,-0.06,-0.9,0.0,183.1,43.42,1.68,43.222209,-0.051822,12,1,8.08,438.79
606394,-0.01,0.00,0.00,0.00,-0.12,0.18,-0.9,0.0,183.1,43.42,1.69,43.222209,-0.051822,12,1,8.08,438.79
606700,-0.02,0.00,0.00,-0.12,0.00,0.12,-0.9,0.0,183.1,43.43,1.68,43.222209,-0.051822,12,1,8.08,438.79
607312,-0.03,-0.00,-0.03,0.00,0.00,0.00,-0.9,0.0,183.1,43.43,1.67,43.222209,-0.051822,12,1,8.08,438.89
607618,-0.01,-0.00,-0.00,-0.12,0.00,-0.06,-0.9,0.0,183.1,43.44,1.68,43.222209,-0.051822,12,1,8.08,438.89
607924,-0.02,0.00,-0.01,-0.06,0.06,0.12,-0.9,0.0,183.1,43.44,1.68,43.222209,-0.051822,12,1,8.08,438.89
608230,-0.05,-0.00,0.00,0.00,-0.12,0.00,-0.9,0.0,183.1,43.44,1.67,43.222209,-0.051822,12,1,8.08,438.89
608536,-0.01,0.00,0.00,-0.06,0.06,-0.06,-0.9,0.0,183.1,43.44,1.69,43.222209,-0.051822,12,1,8.08,438.89
608842,-0.03,-0.00,-0.00,0.00,-0.06,0.00,-0.9,0.0,183.1,43.45,1.69,43.222209,-0.051822,12,1,8.08,439.00
609454,-0.05,0.00,0.00,0.06,-0.06,0.06,-0.9,0.0,183.1,43.45,1.68,43.222209,-0.051821,12,1,8.08,439.00
609760,-0.02,-0.01,0.00,0.12,-0.12,0.06,-0.9,0.0,183.1,43.46,1.67,43.222209,-0.051821,12,1,8.08,439.00
610066,-0.03,-0.02,0.00,-0.06,0.00,-0.12,-0.9,0.0,183.1,43.46,1.67,43.222209,-0.051821,12,1,8.08,439.00
610372,-0.05,-0.01,0.00,0.00,-0.12,0.12,-0.9,0.0,183.1,43.46,1.67,43.222209,-0.051821,12,1,8.08,439.00
610678,-0.02,-0.02,0.00,0.12,-0.12,0.06,-0.9,0.0,183.1,43.47,1.67,43.222209,-0.051821,12,1,8.08,439.00
611290,-0.01,0.00,0.00,-0.06,0.18,0.00,-0.9,0.0,183.1,43.47,1.69,43.222209,-0.051821,12,1,8.08,439.00
611596,-0.02,0.00,-0.01,0.00,-0.25,-0.31,-0.9,0.0,183.1,43.47,1.68,43.222209,-0.051821,12,1,8.08,439.00
611902,-0.03,-0.01,0.00,-0.18,-0.06,-0.12,-0.9,0.0,183.1,43.48,1.69,43.222209,-0.051821,12,1,8.08,439.00
612208,-0.03,-0.00,0.00,-0.06,0.00,0.18,-0.9,0.0,183.1,43.48,1.70,43.222209,-0.051820,12,1,8.07,439.10
612514,-0.01,0.00,0.00,0.06,-0.06,-0.12,-0.9,0.0,183.1,43.48,1.69,43.222209,-0.051820,12,1,8.07,439.10
