tx_timestamp_ms,distance,roll,pitch,yaw,quat_w,quat_x,quat_y,quat_z,accel_x,accel_y,accel_z,latitude,longitude,altitude,flags_raw,gnss_alt
80678,0.95,0.0,0.0,0.0,0.0000,0.0000,0.0000,0.0000,0.00,0.00,0.00,43.557056,6.967237,0.00,1,24.29
80678,0.95,0.0,0.0,0.0,0.0000,0.0000,0.0000,0.0000,0.00,0.00,0.00,43.557056,6.967237,0.00,1,24.29
80678,0.95,0.0,0.0,0.0,0.0000,0.0000,0.0000,0.0000,0.00,0.00,0.00,43.557056,6.967237,0.00,1,24.29
80678,0.95,0.0,0.0,0.0,0.0000,0.0000,0.0000,0.0000,0.00,0.00,0.00,43.557056,6.967237,0.00,1,24.29
80678,0.93,0.0,0.0,0.0,0.0000,0.0000,0.0000,0.0000,0.00,0.00,0.00,43.557056,6.967237,0.00,1,24.29
80691,0.91,2.8,12.1,340.3,0.9795,-0.0996,-0.0433,0.1691,0.11,0.05,0.45,43.557056,6.967237,0.00,1,24.29
80691,0.93,2.8,12.1,340.3,0.9795,-0.0996,-0.0433,0.1691,0.11,0.05,0.45,43.557056,6.967237,0.00,1,24.29
80691,0.93,2.8,12.1,340.3,0.9795,-0.0996,-0.0433,0.1691,0.11,0.05,0.45,43.557056,6.967237,0.00,1,24.29
80691,0.93,2.8,12.1,340.3,0.9795,-0.0996,-0.0433,0.1691,0.11,0.05,0.45,43.557056,6.967237,0.00,1,24.29
80691,0.93,2.8,12.1,340.3,0.9795,-0.0996,-0.0433,0.1691,0.11,0.05,0.45,43.557056,6.967237,0.00,1,24.29
80704,0.93,2.8,11.8,340.3,0.9797,-0.0980,-0.0419,0.1692,0.11,0.05,0.45,43.557056,6.967237,0.00,1,24.29
80704,0.93,2.8,11.8,340.3,0.9797,-0.0980,-0.0419,0.1692,0.11,0.05,0.45,43.557056,6.967237,0.00,1,24.29
80704,0.93,2.8,11.8,340.3,0.9797,-0.0980,-0.0419,0.1692,0.11,0.05,0.45,43.557056,6.967237,0.00,1,24.29
80704,0.93,2.8,11.8,340.3,0.9797,-0.0980,-0.0419,0.1692,0.11,0.05,0.45,43.557056,6.967237,0.00,1,24.29
80704,0.95,2.8,11.8,340.3,0.9797,-0.0980,-0.0419,0.1692,0.11,0.05,0.45,43.557056,6.967237,0.00,1,24.29
80716,0.95,2.6,11.6,340.3,0.9800,-0.0963,-0.0405,0.1691,0.01,-0.02,0.58,43.557056,6.967237,0.00,1,24.29
80716,0.98,2.6,11.6,340.3,0.9800,-0.0963,-0.0405,0.1691,0.01,-0.02,0.58,43.557056,6.967237,0.00,1,24.29
80716,1.00,2.6,11.6,340.3,0.9800,-0.0963,-0.0405,0.1691,0.01,-0.02,0.58,43.557056,6.967237,0.00,1,24.29
80716,0.97,2.6,11.6,340.3,0.9800,-0.0963,-0.0405,0.1691,0.01,-0.02,0.58,43.557056,6.967237,0.00,1,24.29
80716,0.98,2.6,11.6,340.3,0.9800,-0.0963,-0.0405,0.1691,0.01,-0.02,0.58,43.557056,6.967237,0.00,1,24.29
80729,1.00,2.3,11.2,340.5,0.9805,-0.0932,-0.0369,0.1684,0.02,-0.10,0.47,43.557056,6.967237,1.22,1,24.29
80729,0.98,2.3,11.2,340.5,0.9805,-0.0932,-0.0369,0.1684,0.02,-0.10,0.47,43.557056,6.967237,1.22,1,24.29
80729,0.98,2.3,11.2,340.5,0.9805,-0.0932,-0.0369,0.1684,0.02,-0.10,0.47,43.557056,6.967237,1.22,1,24.29
80729,0.98,2.3,11.2,340.5,0.9805,-0.0932,-0.0369,0.1684,0.02,-0.10,0.47,43.557056,6.967237,1.22,1,24.29
80729,0.98,2.3,11.2,340.5,0.9805,-0.0932,-0.0369,0.1684,0.02,-0.10,0.47,43.557056,6.967237,1.22,1,24.29
80742,1.00,2.1,11.0,340.5,0.9812,-0.0894,-0.0328,0.1677,0.11,-0.11,0.36,43.557056,6.967237,1.22,1,24.50
80742,1.01,2.1,11.0,340.5,0.9812,-0.0894,-0.0328,0.1677,0.11,-0.11,0.36,43.557056,6.967237,1.22,1,24.50
80742,1.01,2.1,11.0,340.5,0.9812,-0.0894,-0.0328,0.1677,0.11,-0.11,0.36,43.557056,6.967237,1.22,1,24.50
80742,1.01,2.1,11.0,340.5,0.9812,-0.0894,-0.0328,0.1677,0.11,-0.11,0.36,43.557056,6.967237,1.22,1,24.50
80742,1.02,2.1,11.0,340.5,0.9812,-0.0894,-0.0328,0.1677,0.11,-0.11,0.36,43.557056,6.967237,1.22,1,24.50
80755,1.02,1.9,10.7,340.5,0.9812,-0.0894,-0.0328,0.1677,0.11,-0.11,0.36,43.557056,6.967237,1.22,1,24.50
80755,1.03,1.9,10.7,340.5,0.9812,-0.0894,-0.0328,0.1677,0.11,-0.11,0.36,43.557056,6.967237,1.22,1,24.50
80755,1.02,1.9,10.7,340.5,0.9812,-0.0894,-0.0328,0.1677,0.11,-0.11,0.36,43.557056,6.967237,1.22,1,24.50
80755,1.02,1.9,10.7,340.5,0.9812,-0.0894,-0.0328,0.1677,0.11,-0.11,0.36,43.557056,6.967237,1.22,1,24.50
80755,1.01,1.9,10.7,340.5,0.9812,-0.0894,-0.0328,0.1677,0.11,-0.11,0.36,43.557056,6.967237,1.22,1,24.50
80768,1.01,1.7,10.4,340.5,0.9815,-0.0874,-0.0309,0.1675,0.19,-0.19,0.19,43.557056,6.967237,1.22,1,24.50
80768,1.01,1.7,10.4,340.5,0.9815,-0.0874,-0.0309,0.1675,0.19,-0.19,0.19,43.557056,6.967237,1.22,1,24.50
80768,1.02,1.7,10.4,340.5,0.9815,-0.0874,-0.0309,0.1675,0.19,-0.19,0.19,43.557056,6.967237,1.22,1,24.50
80768,1.02,1.7,10.4,340.5,0.9815,-0.0874,-0.0309,0.1675,0.19,-0.19,0.19,43.557056,6.967237,1.22,1,24.50
80768,1.02,1.7,10.4,340.5,0.9815,-0.0874,-0.0309,0.1675,0.19,-0.19,0.19,43.557056,6.967237,1.22,1,24.50
80780,1.02,1.4,9.9,340.6,0.9822,-0.0816,-0.0259,0.1669,0.49,-0.17,-0.46,43.557056,6.967237,1.25,1,24.50
80780,1.02,1.4,9.9,340.6,0.9822,-0.0816,-0.0259,0.1669,0.49,-0.17,-0.46,43.557056,6.967237,1.25,1,24.50
80780,1.02,1.4,9.9,340.6,0.9822,-0.0816,-0.0259,0.1669,0.49,-0.17,-0.46,43.557056,6.967237,1.25,1,24.50
80780,1.02,1.4,9.9,340.6,0.9822,-0.0816,-0.0259,0.1669,0.49,-0.17,-0.46,43.557056,6.967237,1.25,1,24.50
80780,1.04,1.4,9.9,340.6,0.9822,-0.0816,-0.0259,0.1669,0.49,-0.17,-0.46,43.557056,6.967237,1.25,1,24.50
80793,1.05,1.2,9.5,340.6,0.9824,-0.0798,-0.0247,0.1666,0.55,-0.27,-0.65,43.557056,6.967237,1.25,1,24.50
80793,1.05,1.2,9.5,340.6,0.9824,-0.0798,-0.0247,0.1666,0.55,-0.27,-0.65,43.557056,6.967237,1.25,1,24.50
80793,1.05,1.2,9.5,340.6,0.9824,-0.0798,-0.0247,0.1666,0.55,-0.27,-0.65,43.557056,6.967237,1.25,1,24.50
80793,1.05,1.2,9.5,340.6,0.9824,-0.0798,-0.0247,0.1666,0.55,-0.27,-0.65,43.557056,6.967237,1.25,1,24.50
80793,1.04,1.2,9.5,340.6,0.9824,-0.0798,-0.0247,0.1666,0.55,-0.27,-0.65,43.557056,6.967237,1.25,1,24.50
80806,1.04,1.2,9.5,340.6,0.9824,-0.0798,-0.0247,0.1666,0.55,-0.27,-0.65,43.557056,6.967237,1.25,1,24.50
80806,1.05,1.2,9.5,340.6,0.9824,-0.0798,-0.0247,0.1666,0.55,-0.27,-0.65,43.557056,6.967237,1.25,1,24.50
80806,1.07,1.2,9.5,340.6,0.9824,-0.0798,-0.0247,0.1666,0.55,-0.27,-0.65,43.557056,6.967237,1.25,1,24.50
80806,1.07,1.2,9.5,340.6,0.9824,-0.0798,-0.0247,0.1666,0.55,-0.27,-0.65,43.557056,6.967237,1.25,1,24.50
80806,1.08,1.2,9.5,340.6,0.9824,-0.0798,-0.0247,0.1666,0.55,-0.27,-0.65,43.557056,6.967237,1.25,1,24.50
80818,1.07,1.1,8.9,340.8,0.9830,-0.0755,-0.0227,0.1654,0.50,-0.23,-0.43,43.557056,6.967237,1.25,1,24.50
80818,1.07,1.1,8.9,340.8,0.9830,-0.0755,-0.0227,0.1654,0.50,-0.23,-0.43,43.557056,6.967237,1.25,1,24.50
80818,1.07,1.1,8.9,340.8,0.9830,-0.0755,-0.0227,0.1654,0.50,-0.23,-0.43,43.557056,6.967237,1.25,1,24.50
80818,1.07,1.1,8.9,340.8,0.9830,-0.0755,-0.0227,0.1654,0.50,-0.23,-0.43,43.557056,6.967237,1.25,1,24.50
80818,1.07,1.1,8.9,340.8,0.9830,-0.0755,-0.0227,0.1654,0.50,-0.23,-0.43,43.557056,6.967237,1.25,1,24.50
80831,1.07,1.1,8.7,340.9,0.9832,-0.0740,-0.0224,0.1650,0.50,-0.22,-0.40,43.557056,6.967237,1.25,1,24.50
80831,1.05,1.1,8.7,340.9,0.9832,-0.0740,-0.0224,0.1650,0.50,-0.22,-0.40,43.557056,6.967237,1.25,1,24.50
80831,1.05,1.1,8.7,340.9,0.9832,-0.0740,-0.0224,0.1650,0.50,-0.22,-0.40,43.557056,6.967237,1.25,1,24.50
80831,1.03,1.1,8.7,340.9,0.9832,-0.0740,-0.0224,0.1650,0.50,-0.22,-0.40,43.557056,6.967237,1.25,1,24.50
80831,1.02,1.1,8.7,340.9,0.9832,-0.0740,-0.0224,0.1650,0.50,-0.22,-0.40,43.557056,6.967237,1.25,1,24.50
80844,1.03,1.1,8.5,340.9,0.9834,-0.0723,-0.0221,0.1647,0.55,-0.19,-0.44,43.557056,6.967237,1.25,1,24.60
80844,1.05,1.1,8.5,340.9,0.9834,-0.0723,-0.0221,0.1647,0.55,-0.19,-0.44,43.557056,6.967237,1.25,1,24.60
80844,1.05,1.1,8.5,340.9,0.9834,-0.0723,-0.0221,0.1647,0.55,-0.19,-0.44,43.557056,6.967237,1.25,1,24.60
80844,1.04,1.1,8.5,340.9,0.9834,-0.0723,-0.0221,0.1647,0.55,-0.19,-0.44,43.557056,6.967237,1.25,1,24.60
80844,1.03,1.1,8.5,340.9,0.9834,-0.0723,-0.0221,0.1647,0.55,-0.19,-0.44,43.557056,6.967237,1.25,1,24.60
80857,1.04,1.1,8.5,340.9,0.9835,-0.0708,-0.0227,0.1643,0.61,-0.28,-0.61,43.557056,6.967237,1.25,1,24.60
80857,1.05,1.1,8.5,340.9,0.9835,-0.0708,-0.0227,0.1643,0.61,-0.28,-0.61,43.557056,6.967237,1.25,1,24.60
80857,1.05,1.1,8.5,340.9,0.9835,-0.0708,-0.0227,0.1643,0.61,-0.28,-0.61,43.557056,6.967237,1.25,1,24.60
80857,1.05,1.1,8.5,340.9,0.9835,-0.0708,-0.0227,0.1643,0.61,-0.28,-0.61,43.557056,6.967237,1.25,1,24.60
80857,1.07,1.1,8.5,340.9,0.9835,-0.0708,-0.0227,0.1643,0.61,-0.28,-0.61,43.557056,6.967237,1.25,1,24.60
80870,1.08,1.3,8.0,341.1,0.9839,-0.0677,-0.0232,0.1635,0.65,-0.30,-0.91,43.557056,6.967237,1.25,1,24.60
80870,1.09,1.3,8.0,341.1,0.9839,-0.0677,-0.0232,0.1635,0.65,-0.30,-0.91,43.557056,6.967237,1.25,1,24.60
80870,1.10,1.3,8.0,341.1,0.9839,-0.0677,-0.0232,0.1635,0.65,-0.30,-0.91,43.557056,6.967237,1.25,1,24.60
80870,1.10,1.3,8.0,341.1,0.9839,-0.0677,-0.0232,0.1635,0.65,-0.30,-0.91,43.557056,6.967237,1.25,1,24.60
80870,1.10,1.3,8.0,341.1,0.9839,-0.0677,-0.0232,0.1635,0.65,-0.30,-0.91,43.557056,6.967237,1.25,1,24.60
80882,1.10,1.3,7.8,341.1,0.9841,-0.0662,-0.0230,0.1629,0.63,-0.38,-1.03,43.557056,6.967237,1.24,1,24.60
80882,1.09,1.3,7.8,341.1,0.9841,-0.0662,-0.0230,0.1629,0.63,-0.38,-1.03,43.557056,6.967237,1.24,1,24.60
80882,1.09,1.3,7.8,341.1,0.9841,-0.0662,-0.0230,0.1629,0.63,-0.38,-1.03,43.557056,6.967237,1.24,1,24.60
80882,1.10,1.3,7.8,341.1,0.9841,-0.0662,-0.0230,0.1629,0.63,-0.38,-1.03,43.557056,6.967237,1.24,1,24.60
80882,1.10,1.3,7.8,341.1,0.9841,-0.0662,-0.0230,0.1629,0.63,-0.38,-1.03,43.557056,6.967237,1.24,1,24.60
80895,1.10,1.3,7.7,341.2,0.9843,-0.0649,-0.0227,0.1621,0.54,-0.34,-1.07,43.557056,6.967237,1.24,1,24.60
80895,1.10,1.3,7.7,341.2,0.9843,-0.0649,-0.0227,0.1621,0.54,-0.34,-1.07,43.557056,6.967237,1.24,1,24.60
80895,1.09,1.3,7.7,341.2,0.9843,-0.0649,-0.0227,0.1621,0.54,-0.34,-1.07,43.557056,6.967237,1.24,1,24.60
80895,1.09,1.3,7.7,341.2,0.9843,-0.0649,-0.0227,0.1621,0.54,-0.34,-1.07,43.557056,6.967237,1.24,1,24.60
80895,1.09,1.3,7.7,341.2,0.9843,-0.0649,-0.0227,0.1621,0.54,-0.34,-1.07,43.557056,6.967237,1.24,1,24.60
80908,1.09,1.3,7.6,341.3,0.9846,-0.0638,-0.0223,0.1612,0.47,-0.31,-1.11,43.557056,6.967237,1.24,1,24.60
80908,1.10,1.3,7.6,341.3,0.9846,-0.0638,-0.0223,0.1612,0.47,-0.31,-1.11,43.557056,6.967237,1.24,1,24.60
80908,1.10,1.3,7.6,341.3,0.9846,-0.0638,-0.0223,0.1612,0.47,-0.31,-1.11,43.557056,6.967237,1.24,1,24.60
80908,1.10,1.3,7.6,341.3,0.9846,-0.0638,-0.0223,0.1612,0.47,-0.31,-1.11,43.557056,6.967237,1.24,1,24.60
80908,1.11,1.3,7.6,341.3,0.9846,-0.0638,-0.0223,0.1612,0.47,-0.31,-1.11,43.557056,6.967237,1.24,1,24.60
80920,1.11,1.2,7.4,341.6,0.9850,-0.0623,-0.0211,0.1591,0.37,-0.30,-1.20,43.557056,6.967237,1.24,1,24.60
80920,1.11,1.2,7.4,341.6,0.9850,-0.0623,-0.0211,0.1591,0.37,-0.30,-1.20,43.557056,6.967237,1.24,1,24.60
80920,1.11,1.2,7.4,341.6,0.9850,-0.0623,-0.0211,0.1591,0.37,-0.30,-1.20,43.557056,6.967237,1.24,1,24.60
80920,1.11,1.2,7.4,341.6,0.9850,-0.0623,-0.0211,0.1591,0.37,-0.30,-1.20,43.557056,6.967237,1.24,1,24.60
80920,1.11,1.2,7.4,341.6,0.9850,-0.0623,-0.0211,0.1591,0.37,-0.30,-1.20,43.557056,6.967237,1.24,1,24.60
80933,1.11,1.1,7.3,341.7,0.9852,-0.0619,-0.0203,0.1580,0.38,-0.45,-0.83,43.557056,6.967237,1.21,1,24.60
80933,1.11,1.1,7.3,341.7,0.9852,-0.0619,-0.0203,0.1580,0.38,-0.45,-0.83,43.557056,6.967237,1.21,1,24.60
80933,1.11,1.1,7.3,341.7,0.9852,-0.0619,-0.0203,0.1580,0.38,-0.45,-0.83,43.557056,6.967237,1.21,1,24.60
80933,1.11,1.1,7.3,341.7,0.9852,-0.0619,-0.0203,0.1580,0.38,-0.45,-0.83,43.557056,6.967237,1.21,1,24.60
80933,1.10,1.1,7.3,341.7,0.9852,-0.0619,-0.0203,0.1580,0.38,-0.45,-0.83,43.557056,6.967237,1.21,1,24.60
80946,1.10,1.0,7.3,341.8,0.9854,-0.0617,-0.0193,0.1568,0.35,-0.55,-0.40,43.557056,6.967237,1.21,1,24.50
80946,1.10,1.0,7.3,341.8,0.9854,-0.0617,-0.0193,0.1568,0.35,-0.55,-0.40,43.557056,6.967237,1.21,1,24.50
80946,1.10,1.0,7.3,341.8,0.9854,-0.0617,-0.0193,0.1568,0.35,-0.55,-0.40,43.557056,6.967237,1.21,1,24.50
80946,1.10,1.0,7.3,341.8,0.9854,-0.0617,-0.0193,0.1568,0.35,-0.55,-0.40,43.557056,6.967237,1.21,1,24.50
80946,1.09,1.0,7.3,341.8,0.9854,-0.0617,-0.0193,0.1568,0.35,-0.55,-0.40,43.557056,6.967237,1.21,1,24.50
80959,1.10,0.9,7.2,342.0,0.9857,-0.0616,-0.0180,0.1556,0.43,-0.40,-0.12,43.557056,6.967237,1.21,1,24.50
80959,1.10,0.9,7.2,342.0,0.9857,-0.0616,-0.0180,0.1556,0.43,-0.40,-0.12,43.557056,6.967237,1.21,1,24.50
80959,1.10,0.9,7.2,342.0,0.9857,-0.0616,-0.0180,0.1556,0.43,-0.40,-0.12,43.557056,6.967237,1.21,1,24.50
80959,1.11,0.9,7.2,342.0,0.9857,-0.0616,-0.0180,0.1556,0.43,-0.40,-0.12,43.557056,6.967237,1.21,1,24.50
80959,1.11,0.9,7.2,342.0,0.9857,-0.0616,-0.0180,0.1556,0.43,-0.40,-0.12,43.557056,6.967237,1.21,1,24.50
80971,1.12,0.6,7.1,342.3,0.9862,-0.0610,-0.0151,0.1531,0.58,-0.20,-0.07,43.557056,6.967237,1.21,1,24.50
80971,1.12,0.6,7.1,342.3,0.9862,-0.0610,-0.0151,0.1531,0.58,-0.20,-0.07,43.557056,6.967237,1.21,1,24.50
80971,1.12,0.6,7.1,342.3,0.9862,-0.0610,-0.0151,0.1531,0.58,-0.20,-0.07,43.557056,6.967237,1.21,1,24.50
80971,1.12,0.6,7.1,342.3,0.9862,-0.0610,-0.0151,0.1531,0.58,-0.20,-0.07,43.557056,6.967237,1.21,1,24.50
80971,1.12,0.6,7.1,342.3,0.9862,-0.0610,-0.0151,0.1531,0.58,-0.20,-0.07,43.557056,6.967237,1.21,1,24.50
80984,1.12,0.5,7.0,342.4,0.9864,-0.0601,-0.0139,0.1520,0.65,-0.11,-0.30,43.557056,6.967237,1.18,1,24.50
80984,1.12,0.5,7.0,342.4,0.9864,-0.0601,-0.0139,0.1520,0.65,-0.11,-0.30,43.557056,6.967237,1.18,1,24.50
80984,1.12,0.5,7.0,342.4,0.9864,-0.0601,-0.0139,0.1520,0.65,-0.11,-0.30,43.557056,6.967237,1.18,1,24.50
80984,1.12,0.5,7.0,342.4,0.9864,-0.0601,-0.0139,0.1520,0.65,-0.11,-0.30,43.557056,6.967237,1.18,1,24.50
80984,1.12,0.5,7.0,342.4,0.9864,-0.0601,-0.0139,0.1520,0.65,-0.11,-0.30,43.557056,6.967237,1.18,1,24.50
80997,1.12,0.4,6.8,342.5,0.9866,-0.0588,-0.0130,0.1512,0.63,-0.12,-0.49,43.557056,6.967237,1.18,1,24.50
80997,1.12,0.4,6.8,342.5,0.9866,-0.0588,-0.0130,0.1512,0.63,-0.12,-0.49,43.557056,6.967237,1.18,1,24.50
80997,1.12,0.4,6.8,342.5,0.9866,-0.0588,-0.0130,0.1512,0.63,-0.12,-0.49,43.557056,6.967237,1.18,1,24.50
80997,1.12,0.4,6.8,342.5,0.9866,-0.0588,-0.0130,0.1512,0.63,-0.12,-0.49,43.557056,6.967237,1.18,1,24.50
80997,1.12,0.4,6.8,342.5,0.9866,-0.0588,-0.0130,0.1512,0.63,-0.12,-0.49,43.557056,6.967237,1.18,1,24.50
81010,1.12,0.3,6.6,342.6,0.9868,-0.0573,-0.0125,0.1503,0.65,-0.11,-0.77,43.557056,6.967237,1.18,1,24.50
81010,1.11,0.3,6.6,342.6,0.9868,-0.0573,-0.0125,0.1503,0.65,-0.11,-0.77,43.557056,6.967237,1.18,1,24.50
81010,1.10,0.3,6.6,342.6,0.9868,-0.0573,-0.0125,0.1503,0.65,-0.11,-0.77,43.557056,6.967237,1.18,1,24.50
81010,1.10,0.3,6.6,342.6,0.9868,-0.0573,-0.0125,0.1503,0.65,-0.11,-0.77,43.557056,6.967237,1.18,1,24.50
81010,1.11,0.3,6.6,342.6,0.9868,-0.0573,-0.0125,0.1503,0.65,-0.11,-0.77,43.557056,6.967237,1.18,1,24.50
81023,1.11,0.5,6.3,342.8,0.9872,-0.0545,-0.0135,0.1488,0.54,-0.11,-1.91,43.557056,6.967237,1.18,1,24.50
81023,1.11,0.5,6.3,342.8,0.9872,-0.0545,-0.0135,0.1488,0.54,-0.11,-1.91,43.557056,6.967237,1.18,1,24.50
81023,1.12,0.5,6.3,342.8,0.9872,-0.0545,-0.0135,0.1488,0.54,-0.11,-1.91,43.557056,6.967237,1.18,1,24.50
81023,1.12,0.5,6.3,342.8,0.9872,-0.0545,-0.0135,0.1488,0.54,-0.11,-1.91,43.557056,6.967237,1.18,1,24.50
81023,1.12,0.5,6.3,342.8,0.9872,-0.0545,-0.0135,0.1488,0.54,-0.11,-1.91,43.557056,6.967237,1.18,1,24.50
81035,1.11,0.7,6.2,342.8,0.9873,-0.0532,-0.0151,0.1482,0.41,-0.13,-2.17,43.557056,6.967237,1.14,1,24.50
81035,1.10,0.7,6.2,342.8,0.9873,-0.0532,-0.0151,0.1482,0.41,-0.13,-2.17,43.557056,6.967237,1.14,1,24.50
81035,1.10,0.7,6.2,342.8,0.9873,-0.0532,-0.0151,0.1482,0.41,-0.13,-2.17,43.557056,6.967237,1.14,1,24.50
81035,1.10,0.7,6.2,342.8,0.9873,-0.0532,-0.0151,0.1482,0.41,-0.13,-2.17,43.557056,6.967237,1.14,1,24.50
81035,1.09,0.7,6.2,342.8,0.9873,-0.0532,-0.0151,0.1482,0.41,-0.13,-2.17,43.557056,6.967237,1.14,1,24.50
81048,1.09,1.0,6.1,342.9,0.9874,-0.0523,-0.0172,0.1477,0.27,-0.17,-2.22,43.557056,6.967237,1.14,1,24.50
81048,1.10,1.0,6.1,342.9,0.9874,-0.0523,-0.0172,0.1477,0.27,-0.17,-2.22,43.557056,6.967237,1.14,1,24.50
81048,1.10,1.0,6.1,342.9,0.9874,-0.0523,-0.0172,0.1477,0.27,-0.17,-2.22,43.557056,6.967237,1.14,1,24.50
81048,1.08,1.0,6.1,342.9,0.9874,-0.0523,-0.0172,0.1477,0.27,-0.17,-2.22,43.557056,6.967237,1.14,1,24.50
81048,1.05,1.0,6.1,342.9,0.9874,-0.0523,-0.0172,0.1477,0.27,-0.17,-2.22,43.557056,6.967237,1.14,1,24.50
81061,1.07,1.3,6.1,343.0,0.9875,-0.0516,-0.0195,0.1471,0.20,-0.34,-1.98,43.557056,6.967237,1.14,1,24.60
81061,1.08,1.3,6.1,343.0,0.9875,-0.0516,-0.0195,0.1471,0.20,-0.34,-1.98,43.557056,6.967237,1.14,1,24.60
81061,1.09,1.3,6.1,343.0,0.9875,-0.0516,-0.0195,0.1471,0.20,-0.34,-1.98,43.557056,6.967237,1.14,1,24.60
81061,1.09,1.3,6.1,343.0,0.9875,-0.0516,-0.0195,0.1471,0.20,-0.34,-1.98,43.557056,6.967237,1.14,1,24.60
81061,1.11,1.3,6.1,343.0,0.9875,-0.0516,-0.0195,0.1471,0.20,-0.34,-1.98,43.557056,6.967237,1.14,1,24.60
81074,1.12,1.5,6.1,343.1,0.9876,-0.0513,-0.0218,0.1463,0.02,-0.50,-1.65,43.557056,6.967237,1.14,1,24.60
81074,1.13,1.5,6.1,343.1,0.9876,-0.0513,-0.0218,0.1463,0.02,-0.50,-1.65,43.557056,6.967237,1.14,1,24.60
81074,1.13,1.5,6.1,343.1,0.9876,-0.0513,-0.0218,0.1463,0.02,-0.50,-1.65,43.557056,6.967237,1.14,1,24.60
81074,1.12,1.5,6.1,343.1,0.9876,-0.0513,-0.0218,0.1463,0.02,-0.50,-1.65,43.557056,6.967237,1.14,1,24.60
81074,1.13,1.5,6.1,343.1,0.9876,-0.0513,-0.0218,0.1463,0.02,-0.50,-1.65,43.557056,6.967237,1.14,1,24.60
81086,1.13,2.0,6.2,343.2,0.9877,-0.0516,-0.0257,0.1450,-0.22,-0.11,-1.11,43.557056,6.967237,1.11,1,24.60
81086,1.13,2.0,6.2,343.2,0.9877,-0.0516,-0.0257,0.1450,-0.22,-0.11,-1.11,43.557056,6.967237,1.11,1,24.60
81086,1.12,2.0,6.2,343.2,0.9877,-0.0516,-0.0257,0.1450,-0.22,-0.11,-1.11,43.557056,6.967237,1.11,1,24.60
81086,1.12,2.0,6.2,343.2,0.9877,-0.0516,-0.0257,0.1450,-0.22,-0.11,-1.11,43.557056,6.967237,1.11,1,24.60
81086,1.13,2.0,6.2,343.2,0.9877,-0.0516,-0.0257,0.1450,-0.22,-0.11,-1.11,43.557056,6.967237,1.11,1,24.60
81099,1.13,2.2,6.3,343.3,0.9877,-0.0518,-0.0274,0.1445,-0.22,-0.12,-1.07,43.557056,6.967237,1.11,1,24.60
81099,1.13,2.2,6.3,343.3,0.9877,-0.0518,-0.0274,0.1445,-0.22,-0.12,-1.07,43.557056,6.967237,1.11,1,24.60
81099,1.13,2.2,6.3,343.3,0.9877,-0.0518,-0.0274,0.1445,-0.22,-0.12,-1.07,43.557056,6.967237,1.11,1,24.60
81099,1.13,2.2,6.3,343.3,0.9877,-0.0518,-0.0274,0.1445,-0.22,-0.12,-1.07,43.557056,6.967237,1.11,1,24.60
81099,1.13,2.2,6.3,343.3,0.9877,-0.0518,-0.0274,0.1445,-0.22,-0.12,-1.07,43.557056,6.967237,1.11,1,24.60
81112,1.13,2.3,6.3,343.3,0.9877,-0.0518,-0.0289,0.1441,-0.25,-0.07,-0.90,43.557056,6.967237,1.11,1,24.60
81112,1.14,2.3,6.3,343.3,0.9877,-0.0518,-0.0289,0.1441,-0.25,-0.07,-0.90,43.557056,6.967237,1.11,1,24.60
81112,1.14,2.3,6.3,343.3,0.9877,-0.0518,-0.0289,0.1441,-0.25,-0.07,-0.90,43.557056,6.967237,1.11,1,24.60
81112,1.14,2.3,6.3,343.3,0.9877,-0.0518,-0.0289,0.1441,-0.25,-0.07,-0.90,43.557056,6.967237,1.11,1,24.60
81112,1.14,2.3,6.3,343.3,0.9877,-0.0518,-0.0289,0.1441,-0.25,-0.07,-0.90,43.557056,6.967237,1.11,1,24.60
81124,1.14,2.5,6.3,343.3,0.9877,-0.0518,-0.0302,0.1437,-0.27,0.00,-0.68,43.557056,6.967237,1.11,1,24.60
81124,1.14,2.5,6.3,343.3,0.9877,-0.0518,-0.0302,0.1437,-0.27,0.00,-0.68,43.557056,6.967237,1.11,1,24.60
81124,1.14,2.5,6.3,343.3,0.9877,-0.0518,-0.0302,0.1437,-0.27,0.00,-0.68,43.557056,6.967237,1.11,1,24.60
81124,1.14,2.5,6.3,343.3,0.9877,-0.0518,-0.0302,0.1437,-0.27,0.00,-0.68,43.557056,6.967237,1.11,1,24.60
81124,1.14,2.5,6.3,343.3,0.9877,-0.0518,-0.0302,0.1437,-0.27,0.00,-0.68,43.557056,6.967237,1.11,1,24.60
81137,1.14,2.6,6.4,343.4,0.9877,-0.0521,-0.0313,0.1434,-0.31,-0.01,-0.49,43.557056,6.967237,1.06,1,24.60
81137,1.14,2.6,6.4,343.4,0.9877,-0.0521,-0.0313,0.1434,-0.31,-0.01,-0.49,43.557056,6.967237,1.06,1,24.60
81137,1.14,2.6,6.4,343.4,0.9877,-0.0521,-0.0313,0.1434,-0.31,-0.01,-0.49,43.557056,6.967237,1.06,1,24.60
81137,1.15,2.6,6.4,343.4,0.9877,-0.0521,-0.0313,0.1434,-0.31,-0.01,-0.49,43.557056,6.967237,1.06,1,24.60
81137,1.14,2.6,6.4,343.4,0.9877,-0.0521,-0.0313,0.1434,-0.31,-0.01,-0.49,43.557056,6.967237,1.06,1,24.60
81150,1.10,2.9,6.5,343.5,0.9876,-0.0532,-0.0340,0.1431,-0.46,-0.25,-0.30,43.557056,6.967237,1.06,1,24.60
81150,1.10,2.9,6.5,343.5,0.9876,-0.0532,-0.0340,0.1431,-0.46,-0.25,-0.30,43.557056,6.967237,1.06,1,24.60
81150,1.11,2.9,6.5,343.5,0.9876,-0.0532,-0.0340,0.1431,-0.46,-0.25,-0.30,43.557056,6.967237,1.06,1,24.60
81150,1.11,2.9,6.5,343.5,0.9876,-0.0532,-0.0340,0.1431,-0.46,-0.25,-0.30,43.557056,6.967237,1.06,1,24.60
81150,1.11,2.9,6.5,343.5,0.9876,-0.0532,-0.0340,0.1431,-0.46,-0.25,-0.30,43.557056,6.967237,1.06,1,24.60
81163,1.12,3.1,6.6,343.4,0.9875,-0.0536,-0.0360,0.1432,-0.54,-0.27,-0.34,43.557056,6.967237,1.06,1,24.60
81163,1.13,3.1,6.6,343.4,0.9875,-0.0536,-0.0360,0.1432,-0.54,-0.27,-0.34,43.557056,6.967237,1.06,1,24.60
81163,1.13,3.1,6.6,343.4,0.9875,-0.0536,-0.0360,0.1432,-0.54,-0.27,-0.34,43.557056,6.967237,1.06,1,24.60
81163,1.13,3.1,6.6,343.4,0.9875,-0.0536,-0.0360,0.1432,-0.54,-0.27,-0.34,43.557056,6.967237,1.06,1,24.60
81163,1.13,3.1,6.6,343.4,0.9875,-0.0536,-0.0360,0.1432,-0.54,-0.27,-0.34,43.557056,6.967237,1.06,1,24.60
81175,1.13,3.4,6.6,343.4,0.9874,-0.0537,-0.0386,0.1436,-0.52,-0.43,-0.98,43.557056,6.967237,1.06,1,24.60
81175,1.13,3.4,6.6,343.4,0.9874,-0.0537,-0.0386,0.1436,-0.52,-0.43,-0.98,43.557056,6.967237,1.06,1,24.60
81175,1.13,3.4,6.6,343.4,0.9874,-0.0537,-0.0386,0.1436,-0.52,-0.43,-0.98,43.557056,6.967237,1.06,1,24.60
81175,1.13,3.4,6.6,343.4,0.9874,-0.0537,-0.0386,0.1436,-0.52,-0.43,-0.98,43.557056,6.967237,1.06,1,24.60
81175,1.13,3.4,6.6,343.4,0.9874,-0.0537,-0.0386,0.1436,-0.52,-0.43,-0.98,43.557056,6.967237,1.06,1,24.60
81188,1.13,3.7,6.7,343.3,0.9871,-0.0534,-0.0415,0.1443,-0.61,-0.60,-1.19,43.557056,6.967237,1.02,1,24.60
81188,1.12,3.7,6.7,343.3,0.9871,-0.0534,-0.0415,0.1443,-0.61,-0.60,-1.19,43.557056,6.967237,1.02,1,24.60
81188,1.11,3.7,6.7,343.3,0.9871,-0.0534,-0.0415,0.1443,-0.61,-0.60,-1.19,43.557056,6.967237,1.02,1,24.60
81188,1.09,3.7,6.7,343.3,0.9871,-0.0534,-0.0415,0.1443,-0.61,-0.60,-1.19,43.557056,6.967237,1.02,1,24.60
81188,1.08,3.7,6.7,343.3,0.9871,-0.0534,-0.0415,0.1443,-0.61,-0.60,-1.19,43.557056,6.967237,1.02,1,24.60
81201,1.12,4.3,6.8,343.0,0.9866,-0.0530,-0.0469,0.1465,-0.66,-0.61,-1.22,43.557056,6.967237,1.02,1,24.60
81201,1.13,4.3,6.8,343.0,0.9866,-0.0530,-0.0469,0.1465,-0.66,-0.61,-1.22,43.557056,6.967237,1.02,1,24.60
81201,1.14,4.3,6.8,343.0,0.9866,-0.0530,-0.0469,0.1465,-0.66,-0.61,-1.22,43.557056,6.967237,1.02,1,24.60
81201,1.14,4.3,6.8,343.0,0.9866,-0.0530,-0.0469,0.1465,-0.66,-0.61,-1.22,43.557056,6.967237,1.02,1,24.60
81201,1.14,4.3,6.8,343.0,0.9866,-0.0530,-0.0469,0.1465,-0.66,-0.61,-1.22,43.557056,6.967237,1.02,1,24.60
81214,1.13,4.5,6.9,342.9,0.9863,-0.0538,-0.0488,0.1475,-0.61,-0.60,-0.00,43.557056,6.967237,1.02,1,24.79
81214,1.13,4.5,6.9,342.9,0.9863,-0.0538,-0.0488,0.1475,-0.61,-0.60,-0.00,43.557056,6.967237,1.02,1,24.79
81214,1.13,4.5,6.9,342.9,0.9863,-0.0538,-0.0488,0.1475,-0.61,-0.60,-0.00,43.557056,6.967237,1.02,1,24.79
81214,1.13,4.5,6.9,342.9,0.9863,-0.0538,-0.0488,0.1475,-0.61,-0.60,-0.00,43.557056,6.967237,1.02,1,24.79
81214,1.12,4.5,6.9,342.9,0.9863,-0.0538,-0.0488,0.1475,-0.61,-0.60,-0.00,43.557056,6.967237,1.02,1,24.79
81227,1.12,4.6,7.1,342.8,0.9862,-0.0557,-0.0493,0.1479,-0.55,-0.51,0.81,43.557056,6.967237,1.02,1,24.79
81227,1.11,4.6,7.1,342.8,0.9862,-0.0557,-0.0493,0.1479,-0.55,-0.51,0.81,43.557056,6.967237,1.02,1,24.79
81227,1.11,4.6,7.1,342.8,0.9862,-0.0557,-0.0493,0.1479,-0.55,-0.51,0.81,43.557056,6.967237,1.02,1,24.79
81227,1.11,4.6,7.1,342.8,0.9862,-0.0557,-0.0493,0.1479,-0.55,-0.51,0.81,43.557056,6.967237,1.02,1,24.79
81227,1.11,4.6,7.1,342.8,0.9862,-0.0557,-0.0493,0.1479,-0.55,-0.51,0.81,43.557056,6.967237,1.02,1,24.79
81239,1.12,4.3,7.6,342.9,0.9860,-0.0602,-0.0472,0.1478,-0.76,-0.22,1.01,43.557056,6.967237,0.97,1,24.79
81239,1.12,4.3,7.6,342.9,0.9860,-0.0602,-0.0472,0.1478,-0.76,-0.22,1.01,43.557056,6.967237,0.97,1,24.79
81239,1.12,4.3,7.6,342.9,0.9860,-0.0602,-0.0472,0.1478,-0.76,-0.22,1.01,43.557056,6.967237,0.97,1,24.79
81239,1.12,4.3,7.6,342.9,0.9860,-0.0602,-0.0472,0.1478,-0.76,-0.22,1.01,43.557056,6.967237,0.97,1,24.79
81239,1.13,4.3,7.6,342.9,0.9860,-0.0602,-0.0472,0.1478,-0.76,-0.22,1.01,43.557056,6.967237,0.97,1,24.79
81252,1.13,4.0,7.7,342.9,0.9860,-0.0615,-0.0455,0.1476,-0.76,-0.22,1.01,43.557056,6.967237,0.97,1,24.79
81252,1.13,4.0,7.7,342.9,0.9860,-0.0615,-0.0455,0.1476,-0.76,-0.22,1.01,43.557056,6.967237,0.97,1,24.79
81252,1.13,4.0,7.7,342.9,0.9860,-0.0615,-0.0455,0.1476,-0.76,-0.22,1.01,43.557056,6.967237,0.97,1,24.79
81252,1.13,4.0,7.7,342.9,0.9860,-0.0615,-0.0455,0.1476,-0.76,-0.22,1.01,43.557056,6.967237,0.97,1,24.79
81252,1.13,4.0,7.7,342.9,0.9860,-0.0615,-0.0455,0.1476,-0.76,-0.22,1.01,43.557056,6.967237,0.97,1,24.79
81265,1.13,3.8,7.7,342.9,0.9860,-0.0620,-0.0441,0.1478,-0.68,-0.07,0.50,43.557056,6.967237,0.97,1,24.79
81265,1.13,3.8,7.7,342.9,0.9860,-0.0620,-0.0441,0.1478,-0.68,-0.07,0.50,43.557056,6.967237,0.97,1,24.79
81265,1.13,3.8,7.7,342.9,0.9860,-0.0620,-0.0441,0.1478,-0.68,-0.07,0.50,43.557056,6.967237,0.97,1,24.79
81265,1.13,3.8,7.7,342.9,0.9860,-0.0620,-0.0441,0.1478,-0.68,-0.07,0.50,43.557056,6.967237,0.97,1,24.79
81265,1.13,3.8,7.7,342.9,0.9860,-0.0620,-0.0441,0.1478,-0.68,-0.07,0.50,43.557056,6.967237,0.97,1,24.79
81278,1.13,3.8,7.7,342.8,0.9859,-0.0616,-0.0435,0.1488,-0.33,0.13,-0.34,43.557056,6.967237,0.97,1,24.79
81278,1.13,3.8,7.7,342.8,0.9859,-0.0616,-0.0435,0.1488,-0.33,0.13,-0.34,43.557056,6.967237,0.97,1,24.79
81278,1.13,3.8,7.7,342.8,0.9859,-0.0616,-0.0435,0.1488,-0.33,0.13,-0.34,43.557056,6.967237,0.97,1,24.79
81278,1.14,3.8,7.7,342.8,0.9859,-0.0616,-0.0435,0.1488,-0.33,0.13,-0.34,43.557056,6.967237,0.97,1,24.79
81278,1.13,3.8,7.7,342.8,0.9859,-0.0616,-0.0435,0.1488,-0.33,0.13,-0.34,43.557056,6.967237,0.97,1,24.79
81290,1.13,4.0,7.6,342.5,0.9855,-0.0606,-0.0447,0.1514,-0.00,0.23,-0.17,43.557056,6.967237,0.92,1,24.70
81290,1.13,4.0,7.6,342.5,0.9855,-0.0606,-0.0447,0.1514,-0.00,0.23,-0.17,43.557056,6.967237,0.92,1,24.70
81290,1.13,4.0,7.6,342.5,0.9855,-0.0606,-0.0447,0.1514,-0.00,0.23,-0.17,43.557056,6.967237,0.92,1,24.70
81290,1.13,4.0,7.6,342.5,0.9855,-0.0606,-0.0447,0.1514,-0.00,0.23,-0.17,43.557056,6.967237,0.92,1,24.70
81290,1.13,4.0,7.6,342.5,0.9855,-0.0606,-0.0447,0.1514,-0.00,0.23,-0.17,43.557056,6.967237,0.92,1,24.70
81303,1.13,4.0,7.6,342.3,0.9853,-0.0608,-0.0456,0.1527,-0.00,0.23,-0.17,43.557056,6.967237,0.92,1,24.70
81303,1.13,4.0,7.6,342.3,0.9853,-0.0608,-0.0456,0.1527,-0.00,0.23,-0.17,43.557056,6.967237,0.92,1,24.70
81303,1.12,4.0,7.6,342.3,0.9853,-0.0608,-0.0456,0.1527,-0.00,0.23,-0.17,43.557056,6.967237,0.92,1,24.70
81303,1.12,4.0,7.6,342.3,0.9853,-0.0608,-0.0456,0.1527,-0.00,0.23,-0.17,43.557056,6.967237,0.92,1,24.70
81303,1.12,4.0,7.6,342.3,0.9853,-0.0608,-0.0456,0.1527,-0.00,0.23,-0.17,43.557056,6.967237,0.92,1,24.70
81316,1.12,4.1,7.8,342.2,0.9851,-0.0617,-0.0463,0.1535,0.11,0.36,0.27,43.557056,6.967237,0.92,1,24.70
81316,1.12,4.1,7.8,342.2,0.9851,-0.0617,-0.0463,0.1535,0.11,0.36,0.27,43.557056,6.967237,0.92,1,24.70
81316,1.11,4.1,7.8,342.2,0.9851,-0.0617,-0.0463,0.1535,0.11,0.36,0.27,43.557056,6.967237,0.92,1,24.70
81316,1.11,4.1,7.8,342.2,0.9851,-0.0617,-0.0463,0.1535,0.11,0.36,0.27,43.557056,6.967237,0.92,1,24.70
81316,1.11,4.1,7.8,342.2,0.9851,-0.0617,-0.0463,0.1535,0.11,0.36,0.27,43.557056,6.967237,0.92,1,24.70
81329,1.11,4.1,7.9,342.1,0.9848,-0.0642,-0.0458,0.1542,0.07,0.45,1.54,43.557056,6.967237,0.92,1,24.70
81329,1.12,4.1,7.9,342.1,0.9848,-0.0642,-0.0458,0.1542,0.07,0.45,1.54,43.557056,6.967237,0.92,1,24.70
81329,1.12,4.1,7.9,342.1,0.9848,-0.0642,-0.0458,0.1542,0.07,0.45,1.54,43.557056,6.967237,0.92,1,24.70
81329,1.12,4.1,7.9,342.1,0.9848,-0.0642,-0.0458,0.1542,0.07,0.45,1.54,43.557056,6.967237,0.92,1,24.70
81329,1.12,4.1,7.9,342.1,0.9848,-0.0642,-0.0458,0.1542,0.07,0.45,1.54,43.557056,6.967237,0.92,1,24.70
81341,1.12,3.8,8.1,342.1,0.9849,-0.0645,-0.0428,0.1547,0.35,0.58,1.05,43.557056,6.967237,0.91,1,24.70
81341,1.11,3.8,8.1,342.1,0.9849,-0.0645,-0.0428,0.1547,0.35,0.58,1.05,43.557056,6.967237,0.91,1,24.70
81341,1.12,3.8,8.1,342.1,0.9849,-0.0645,-0.0428,0.1547,0.35,0.58,1.05,43.557056,6.967237,0.91,1,24.70
81341,1.12,3.8,8.1,342.1,0.9849,-0.0645,-0.0428,0.1547,0.35,0.58,1.05,43.557056,6.967237,0.91,1,24.70
81341,1.12,3.8,8.1,342.1,0.9849,-0.0645,-0.0428,0.1547,0.35,0.58,1.05,43.557056,6.967237,0.91,1,24.70
81354,1.12,3.6,8.0,342.1,0.9849,-0.0645,-0.0428,0.1547,0.35,0.58,1.05,43.557056,6.967237,0.91,1,24.70
81354,1.12,3.6,8.0,342.1,0.9849,-0.0645,-0.0428,0.1547,0.35,0.58,1.05,43.557056,6.967237,0.91,1,24.70
81354,1.12,3.6,8.0,342.1,0.9849,-0.0645,-0.0428,0.1547,0.35,0.58,1.05,43.557056,6.967237,0.91,1,24.70
81354,1.12,3.6,8.0,342.1,0.9849,-0.0645,-0.0428,0.1547,0.35,0.58,1.05,43.557056,6.967237,0.91,1,24.70
81354,1.13,3.6,8.0,342.1,0.9849,-0.0645,-0.0428,0.1547,0.35,0.58,1.05,43.557056,6.967237,0.91,1,24.70
81367,1.14,3.3,7.8,342.0,0.9850,-0.0633,-0.0403,0.1549,0.47,0.51,0.27,43.557056,6.967237,0.91,1,24.70
81367,1.14,3.3,7.8,342.0,0.9850,-0.0633,-0.0403,0.1549,0.47,0.51,0.27,43.557056,6.967237,0.91,1,24.70
81367,1.14,3.3,7.8,342.0,0.9850,-0.0633,-0.0403,0.1549,0.47,0.51,0.27,43.557056,6.967237,0.91,1,24.70
81367,1.14,3.3,7.8,342.0,0.9850,-0.0633,-0.0403,0.1549,0.47,0.51,0.27,43.557056,6.967237,0.91,1,24.70
81367,1.14,3.3,7.8,342.0,0.9850,-0.0633,-0.0403,0.1549,0.47,0.51,0.27,43.557056,6.967237,0.91,1,24.70
81380,1.14,2.5,7.3,342.1,0.9856,-0.0595,-0.0324,0.1547,0.60,0.55,-0.11,43.557056,6.967237,0.91,1,24.70
81380,1.14,2.5,7.3,342.1,0.9856,-0.0595,-0.0324,0.1547,0.60,0.55,-0.11,43.557056,6.967237,0.91,1,24.70
81380,1.14,2.5,7.3,342.1,0.9856,-0.0595,-0.0324,0.1547,0.60,0.55,-0.11,43.557056,6.967237,0.91,1,24.70
81380,1.14,2.5,7.3,342.1,0.9856,-0.0595,-0.0324,0.1547,0.60,0.55,-0.11,43.557056,6.967237,0.91,1,24.70
81380,1.14,2.5,7.3,342.1,0.9856,-0.0595,-0.0324,0.1547,0.60,0.55,-0.11,43.557056,6.967237,0.91,1,24.70
81392,1.14,2.3,7.1,342.1,0.9858,-0.0587,-0.0298,0.1542,0.51,0.57,-0.22,43.557056,6.967237,0.90,1,24.70
81392,1.14,2.3,7.1,342.1,0.9858,-0.0587,-0.0298,0.1542,0.51,0.57,-0.22,43.557056,6.967237,0.90,1,24.70
81392,1.14,2.3,7.1,342.1,0.9858,-0.0587,-0.0298,0.1542,0.51,0.57,-0.22,43.557056,6.967237,0.90,1,24.70
81392,1.14,2.3,7.1,342.1,0.9858,-0.0587,-0.0298,0.1542,0.51,0.57,-0.22,43.557056,6.967237,0.90,1,24.70
81392,1.14,2.3,7.1,342.1,0.9858,-0.0587,-0.0298,0.1542,0.51,0.57,-0.22,43.557056,6.967237,0.90,1,24.70
81405,1.14,2.0,7.0,342.2,0.9860,-0.0579,-0.0271,0.1536,0.50,0.60,-0.33,43.557056,6.967237,0.90,1,24.70
81405,1.14,2.0,7.0,342.2,0.9860,-0.0579,-0.0271,0.1536,0.50,0.60,-0.33,43.557056,6.967237,0.90,1,24.70
81405,1.14,2.0,7.0,342.2,0.9860,-0.0579,-0.0271,0.1536,0.50,0.60,-0.33,43.557056,6.967237,0.90,1,24.70
81405,1.14,2.0,7.0,342.2,0.9860,-0.0579,-0.0271,0.1536,0.50,0.60,-0.33,43.557056,6.967237,0.90,1,24.70
81405,1.15,2.0,7.0,342.2,0.9860,-0.0579,-0.0271,0.1536,0.50,0.60,-0.33,43.557056,6.967237,0.90,1,24.70
81418,1.15,1.7,6.8,342.3,0.9862,-0.0571,-0.0244,0.1528,0.55,0.57,-0.43,43.557056,6.967237,0.90,1,24.70
81418,1.15,1.7,6.8,342.3,0.9862,-0.0571,-0.0244,0.1528,0.55,0.57,-0.43,43.557056,6.967237,0.90,1,24.70
81418,1.15,1.7,6.8,342.3,0.9862,-0.0571,-0.0244,0.1528,0.55,0.57,-0.43,43.557056,6.967237,0.90,1,24.70
81418,1.15,1.7,6.8,342.3,0.9862,-0.0571,-0.0244,0.1528,0.55,0.57,-0.43,43.557056,6.967237,0.90,1,24.70
81418,1.15,1.7,6.8,342.3,0.9862,-0.0571,-0.0244,0.1528,0.55,0.57,-0.43,43.557056,6.967237,0.90,1,24.70
81431,1.15,1.0,6.6,342.6,0.9868,-0.0562,-0.0183,0.1505,0.27,0.43,0.18,43.557056,6.967237,0.90,1,24.70
81431,1.15,1.0,6.6,342.6,0.9868,-0.0562,-0.0183,0.1505,0.27,0.43,0.18,43.557056,6.967237,0.90,1,24.70
81431,1.15,1.0,6.6,342.6,0.9868,-0.0562,-0.0183,0.1505,0.27,0.43,0.18,43.557056,6.967237,0.90,1,24.70
81431,1.13,1.0,6.6,342.6,0.9868,-0.0562,-0.0183,0.1505,0.27,0.43,0.18,43.557056,6.967237,0.90,1,24.70
81431,1.14,1.0,6.6,342.6,0.9868,-0.0562,-0.0183,0.1505,0.27,0.43,0.18,43.557056,6.967237,0.90,1,24.70
81443,1.14,0.7,6.5,342.7,0.9871,-0.0557,-0.0150,0.1493,0.22,0.46,0.15,43.557056,6.967237,0.88,1,24.79
81443,1.14,0.7,6.5,342.7,0.9871,-0.0557,-0.0150,0.1493,0.22,0.46,0.15,43.557056,6.967237,0.88,1,24.79
81443,1.13,0.7,6.5,342.7,0.9871,-0.0557,-0.0150,0.1493,0.22,0.46,0.15,43.557056,6.967237,0.88,1,24.79
81443,1.13,0.7,6.5,342.7,0.9871,-0.0557,-0.0150,0.1493,0.22,0.46,0.15,43.557056,6.967237,0.88,1,24.79
81443,1.13,0.7,6.5,342.7,0.9871,-0.0557,-0.0150,0.1493,0.22,0.46,0.15,43.557056,6.967237,0.88,1,24.79
81456,1.16,0.3,6.4,342.8,0.9873,-0.0552,-0.0120,0.1481,0.13,0.25,0.07,43.557056,6.967237,0.88,1,24.79
81456,1.16,0.3,6.4,342.8,0.9873,-0.0552,-0.0120,0.1481,0.13,0.25,0.07,43.557056,6.967237,0.88,1,24.79
81456,1.16,0.3,6.4,342.8,0.9873,-0.0552,-0.0120,0.1481,0.13,0.25,0.07,43.557056,6.967237,0.88,1,24.79
81456,1.15,0.3,6.4,342.8,0.9873,-0.0552,-0.0120,0.1481,0.13,0.25,0.07,43.557056,6.967237,0.88,1,24.79
81456,1.16,0.3,6.4,342.8,0.9873,-0.0552,-0.0120,0.1481,0.13,0.25,0.07,43.557056,6.967237,0.88,1,24.79
81469,1.16,0.1,6.2,343.0,0.9876,-0.0540,-0.0096,0.1471,0.10,0.23,0.02,43.557056,6.967237,0.88,1,24.79
81469,1.16,0.1,6.2,343.0,0.9876,-0.0540,-0.0096,0.1471,0.10,0.23,0.02,43.557056,6.967237,0.88,1,24.79
81469,1.15,0.1,6.2,343.0,0.9876,-0.0540,-0.0096,0.1471,0.10,0.23,0.02,43.557056,6.967237,0.88,1,24.79
81469,1.14,0.1,6.2,343.0,0.9876,-0.0540,-0.0096,0.1471,0.10,0.23,0.02,43.557056,6.967237,0.88,1,24.79
81469,1.13,0.1,6.2,343.0,0.9876,-0.0540,-0.0096,0.1471,0.10,0.23,0.02,43.557056,6.967237,0.88,1,24.79
81482,1.12,-0.0,5.8,343.1,0.9879,-0.0504,-0.0067,0.1461,0.09,0.27,-0.44,43.557056,6.967237,0.88,1,24.79
81482,1.12,-0.0,5.8,343.1,0.9879,-0.0504,-0.0067,0.1461,0.09,0.27,-0.44,43.557056,6.967237,0.88,1,24.79
81482,1.12,-0.0,5.8,343.1,0.9879,-0.0504,-0.0067,0.1461,0.09,0.27,-0.44,43.557056,6.967237,0.88,1,24.79
81482,1.13,-0.0,5.8,343.1,0.9879,-0.0504,-0.0067,0.1461,0.09,0.27,-0.44,43.557056,6.967237,0.88,1,24.79
81482,1.13,-0.0,5.8,343.1,0.9879,-0.0504,-0.0067,0.1461,0.09,0.27,-0.44,43.557056,6.967237,0.88,1,24.79
81494,1.13,-0.1,5.5,343.1,0.9880,-0.0486,-0.0061,0.1459,0.13,0.31,-0.63,43.557056,6.967237,0.80,1,24.79
81494,1.14,-0.1,5.5,343.1,0.9880,-0.0486,-0.0061,0.1459,0.13,0.31,-0.63,43.557056,6.967237,0.80,1,24.79
81494,1.15,-0.1,5.5,343.1,0.9880,-0.0486,-0.0061,0.1459,0.13,0.31,-0.63,43.557056,6.967237,0.80,1,24.79
81494,1.15,-0.1,5.5,343.1,0.9880,-0.0486,-0.0061,0.1459,0.13,0.31,-0.63,43.557056,6.967237,0.80,1,24.79
81494,1.15,-0.1,5.5,343.1,0.9880,-0.0486,-0.0061,0.1459,0.13,0.31,-0.63,43.557056,6.967237,0.80,1,24.79
81507,1.16,-0.1,5.3,343.1,0.9882,-0.0469,-0.0056,0.1456,0.13,0.25,-0.66,43.557056,6.967237,0.80,1,24.79
81507,1.17,-0.1,5.3,343.1,0.9882,-0.0469,-0.0056,0.1456,0.13,0.25,-0.66,43.557056,6.967237,0.80,1,24.79
81507,1.19,-0.1,5.3,343.1,0.9882,-0.0469,-0.0056,0.1456,0.13,0.25,-0.66,43.557056,6.967237,0.80,1,24.79
81507,1.20,-0.1,5.3,343.1,0.9882,-0.0469,-0.0056,0.1456,0.13,0.25,-0.66,43.557056,6.967237,0.80,1,24.79
81507,1.20,-0.1,5.3,343.1,0.9882,-0.0469,-0.0056,0.1456,0.13,0.25,-0.66,43.557056,6.967237,0.80,1,24.79
81520,1.20,-0.1,5.1,343.2,0.9883,-0.0454,-0.0052,0.1453,0.11,0.10,-0.56,43.557056,6.967237,0.80,1,24.79
81520,1.20,-0.1,5.1,343.2,0.9883,-0.0454,-0.0052,0.1453,0.11,0.10,-0.56,43.557056,6.967237,0.80,1,24.79
81520,1.20,-0.1,5.1,343.2,0.9883,-0.0454,-0.0052,0.1453,0.11,0.10,-0.56,43.557056,6.967237,0.80,1,24.79
81520,1.21,-0.1,5.1,343.2,0.9883,-0.0454,-0.0052,0.1453,0.11,0.10,-0.56,43.557056,6.967237,0.80,1,24.79
81520,1.21,-0.1,5.1,343.2,0.9883,-0.0454,-0.0052,0.1453,0.11,0.10,-0.56,43.557056,6.967237,0.80,1,24.79
81533,1.21,-0.1,4.8,343.3,0.9885,-0.0426,-0.0042,0.1446,-0.10,-0.22,-0.41,43.557056,6.967244,0.80,1,24.79
81533,1.21,-0.1,4.8,343.3,0.9885,-0.0426,-0.0042,0.1446,-0.10,-0.22,-0.41,43.557056,6.967244,0.80,1,24.79
81533,1.21,-0.1,4.8,343.3,0.9885,-0.0426,-0.0042,0.1446,-0.10,-0.22,-0.41,43.557056,6.967244,0.80,1,24.79
81533,1.22,-0.1,4.8,343.3,0.9885,-0.0426,-0.0042,0.1446,-0.10,-0.22,-0.41,43.557056,6.967244,0.80,1,24.79
81533,1.21,-0.1,4.8,343.3,0.9885,-0.0426,-0.0042,0.1446,-0.10,-0.22,-0.41,43.557056,6.967244,0.80,1,24.79
81545,1.21,-0.2,4.6,343.3,0.9886,-0.0412,-0.0036,0.1442,-0.30,-0.25,-0.40,43.557056,6.967244,0.68,1,24.89
81545,1.21,-0.2,4.6,343.3,0.9886,-0.0412,-0.0036,0.1442,-0.30,-0.25,-0.40,43.557056,6.967244,0.68,1,24.89
81545,1.22,-0.2,4.6,343.3,0.9886,-0.0412,-0.0036,0.1442,-0.30,-0.25,-0.40,43.557056,6.967244,0.68,1,24.89
81545,1.22,-0.2,4.6,343.3,0.9886,-0.0412,-0.0036,0.1442,-0.30,-0.25,-0.40,43.557056,6.967244,0.68,1,24.89
81545,1.22,-0.2,4.6,343.3,0.9886,-0.0412,-0.0036,0.1442,-0.30,-0.25,-0.40,43.557056,6.967244,0.68,1,24.89
81558,1.22,-0.3,4.5,343.3,0.9887,-0.0397,-0.0028,0.1440,-0.31,-0.30,-0.57,43.557056,6.967244,0.68,1,24.89
81558,1.23,-0.3,4.5,343.3,0.9887,-0.0397,-0.0028,0.1440,-0.31,-0.30,-0.57,43.557056,6.967244,0.68,1,24.89
81558,1.23,-0.3,4.5,343.3,0.9887,-0.0397,-0.0028,0.1440,-0.31,-0.30,-0.57,43.557056,6.967244,0.68,1,24.89
81558,1.23,-0.3,4.5,343.3,0.9887,-0.0397,-0.0028,0.1440,-0.31,-0.30,-0.57,43.557056,6.967244,0.68,1,24.89
81558,1.23,-0.3,4.5,343.3,0.9887,-0.0397,-0.0028,0.1440,-0.31,-0.30,-0.57,43.557056,6.967244,0.68,1,24.89
81571,1.23,-0.3,4.3,343.3,0.9888,-0.0380,-0.0019,0.1439,-0.38,-0.28,-0.70,43.557056,6.967244,0.68,1,24.89
81571,1.23,-0.3,4.3,343.3,0.9888,-0.0380,-0.0019,0.1439,-0.38,-0.28,-0.70,43.557056,6.967244,0.68,1,24.89
81571,1.24,-0.3,4.3,343.3,0.9888,-0.0380,-0.0019,0.1439,-0.38,-0.28,-0.70,43.557056,6.967244,0.68,1,24.89
81571,1.24,-0.3,4.3,343.3,0.9888,-0.0380,-0.0019,0.1439,-0.38,-0.28,-0.70,43.557056,6.967244,0.68,1,24.89
81571,1.24,-0.3,4.3,343.3,0.9888,-0.0380,-0.0019,0.1439,-0.38,-0.28,-0.70,43.557056,6.967244,0.68,1,24.89
81584,1.24,-0.5,3.8,343.3,0.9889,-0.0345,0.0003,0.1441,-0.44,-0.31,-0.70,43.557056,6.967244,0.68,1,24.89
81584,1.24,-0.5,3.8,343.3,0.9889,-0.0345,0.0003,0.1441,-0.44,-0.31,-0.70,43.557056,6.967244,0.68,1,24.89
81584,1.23,-0.5,3.8,343.3,0.9889,-0.0345,0.0003,0.1441,-0.44,-0.31,-0.70,43.557056,6.967244,0.68,1,24.89
81584,1.22,-0.5,3.8,343.3,0.9889,-0.0345,0.0003,0.1441,-0.44,-0.31,-0.70,43.557056,6.967244,0.68,1,24.89
81584,1.20,-0.5,3.8,343.3,0.9889,-0.0345,0.0003,0.1441,-0.44,-0.31,-0.70,43.557056,6.967244,0.68,1,24.89
81596,1.19,-0.6,3.6,343.3,0.9889,-0.0330,0.0015,0.1444,-0.40,-0.31,-0.66,43.557056,6.967244,0.54,1,24.89
81596,1.17,-0.6,3.6,343.3,0.9889,-0.0330,0.0015,0.1444,-0.40,-0.31,-0.66,43.557056,6.967244,0.54,1,24.89
81596,1.16,-0.6,3.6,343.3,0.9889,-0.0330,0.0015,0.1444,-0.40,-0.31,-0.66,43.557056,6.967244,0.54,1,24.89
81596,1.16,-0.6,3.6,343.3,0.9889,-0.0330,0.0015,0.1444,-0.40,-0.31,-0.66,43.557056,6.967244,0.54,1,24.89
81596,1.16,-0.6,3.6,343.3,0.9889,-0.0330,0.0015,0.1444,-0.40,-0.31,-0.66,43.557056,6.967244,0.54,1,24.89
81609,1.16,-0.8,3.5,343.3,0.9889,-0.0319,0.0025,0.1449,-0.34,-0.19,-0.63,43.557056,6.967244,0.54,1,24.89
81609,1.16,-0.8,3.5,343.3,0.9889,-0.0319,0.0025,0.1449,-0.34,-0.19,-0.63,43.557056,6.967244,0.54,1,24.89
81609,1.16,-0.8,3.5,343.3,0.9889,-0.0319,0.0025,0.1449,-0.34,-0.19,-0.63,43.557056,6.967244,0.54,1,24.89
81609,1.17,-0.8,3.5,343.3,0.9889,-0.0319,0.0025,0.1449,-0.34,-0.19,-0.63,43.557056,6.967244,0.54,1,24.89
81609,1.19,-0.8,3.5,343.3,0.9889,-0.0319,0.0025,0.1449,-0.34,-0.19,-0.63,43.557056,6.967244,0.54,1,24.89
81622,1.20,-0.8,3.4,343.1,0.9888,-0.0311,0.0036,0.1456,-0.27,-0.09,-0.74,43.557056,6.967244,0.54,1,24.89
81622,1.21,-0.8,3.4,343.1,0.9888,-0.0311,0.0036,0.1456,-0.27,-0.09,-0.74,43.557056,6.967244,0.54,1,24.89
81622,1.21,-0.8,3.4,343.1,0.9888,-0.0311,0.0036,0.1456,-0.27,-0.09,-0.74,43.557056,6.967244,0.54,1,24.89
81622,1.22,-0.8,3.4,343.1,0.9888,-0.0311,0.0036,0.1456,-0.27,-0.09,-0.74,43.557056,6.967244,0.54,1,24.89
81622,1.22,-0.8,3.4,343.1,0.9888,-0.0311,0.0036,0.1456,-0.27,-0.09,-0.74,43.557056,6.967244,0.54,1,24.89
81635,1.23,-0.8,3.1,343.0,0.9886,-0.0288,0.0039,0.1475,0.03,0.07,-0.83,43.557056,6.967244,0.54,1,24.89
81635,1.24,-0.8,3.1,343.0,0.9886,-0.0288,0.0039,0.1475,0.03,0.07,-0.83,43.557056,6.967244,0.54,1,24.89
81635,1.25,-0.8,3.1,343.0,0.9886,-0.0288,0.0039,0.1475,0.03,0.07,-0.83,43.557056,6.967244,0.54,1,24.89
81635,1.25,-0.8,3.1,343.0,0.9886,-0.0288,0.0039,0.1475,0.03,0.07,-0.83,43.557056,6.967244,0.54,1,24.89
81635,1.26,-0.8,3.1,343.0,0.9886,-0.0288,0.0039,0.1475,0.03,0.07,-0.83,43.557056,6.967244,0.54,1,24.89
81647,1.26,-0.8,3.0,342.8,0.9885,-0.0277,0.0034,0.1486,0.09,0.03,-0.85,43.557056,6.967244,0.39,1,25.00
81647,1.26,-0.8,3.0,342.8,0.9885,-0.0277,0.0034,0.1486,0.09,0.03,-0.85,43.557056,6.967244,0.39,1,25.00
81647,1.26,-0.8,3.0,342.8,0.9885,-0.0277,0.0034,0.1486,0.09,0.03,-0.85,43.557056,6.967244,0.39,1,25.00
81647,1.25,-0.8,3.0,342.8,0.9885,-0.0277,0.0034,0.1486,0.09,0.03,-0.85,43.557056,6.967244,0.39,1,25.00
81647,1.25,-0.8,3.0,342.8,0.9885,-0.0277,0.0034,0.1486,0.09,0.03,-0.85,43.557056,6.967244,0.39,1,25.00
81660,1.25,-0.7,2.9,342.7,0.9883,-0.0266,0.0026,0.1497,0.15,-0.05,-0.76,43.557056,6.967244,0.39,1,25.00
81660,1.25,-0.7,2.9,342.7,0.9883,-0.0266,0.0026,0.1497,0.15,-0.05,-0.76,43.557056,6.967244,0.39,1,25.00
81660,1.25,-0.7,2.9,342.7,0.9883,-0.0266,0.0026,0.1497,0.15,-0.05,-0.76,43.557056,6.967244,0.39,1,25.00
81660,1.23,-0.7,2.9,342.7,0.9883,-0.0266,0.0026,0.1497,0.15,-0.05,-0.76,43.557056,6.967244,0.39,1,25.00
81660,1.21,-0.7,2.9,342.7,0.9883,-0.0266,0.0026,0.1497,0.15,-0.05,-0.76,43.557056,6.967244,0.39,1,25.00
81673,1.20,-0.6,2.8,342.6,0.9882,-0.0257,0.0017,0.1508,0.13,0.05,-0.40,43.557056,6.967244,0.39,1,25.00
81673,1.19,-0.6,2.8,342.6,0.9882,-0.0257,0.0017,0.1508,0.13,0.05,-0.40,43.557056,6.967244,0.39,1,25.00
81673,1.17,-0.6,2.8,342.6,0.9882,-0.0257,0.0017,0.1508,0.13,0.05,-0.40,43.557056,6.967244,0.39,1,25.00
81673,1.17,-0.6,2.8,342.6,0.9882,-0.0257,0.0017,0.1508,0.13,0.05,-0.40,43.557056,6.967244,0.39,1,25.00
81673,1.17,-0.6,2.8,342.6,0.9882,-0.0257,0.0017,0.1508,0.13,0.05,-0.40,43.557056,6.967244,0.39,1,25.00
81686,1.17,-0.5,2.7,342.5,0.9880,-0.0249,0.0008,0.1517,0.11,0.09,-0.45,43.557056,6.967244,0.39,1,25.00
81686,1.16,-0.5,2.7,342.5,0.9880,-0.0249,0.0008,0.1517,0.11,0.09,-0.45,43.557056,6.967244,0.39,1,25.00
81686,1.16,-0.5,2.7,342.5,0.9880,-0.0249,0.0008,0.1517,0.11,0.09,-0.45,43.557056,6.967244,0.39,1,25.00
81686,1.16,-0.5,2.7,342.5,0.9880,-0.0249,0.0008,0.1517,0.11,0.09,-0.45,43.557056,6.967244,0.39,1,25.00
81686,1.16,-0.5,2.7,342.5,0.9880,-0.0249,0.0008,0.1517,0.11,0.09,-0.45,43.557056,6.967244,0.39,1,25.00
81698,1.16,-0.3,2.5,342.3,0.9879,-0.0228,0.0000,0.1532,0.07,0.13,-0.52,43.557056,6.967244,0.21,1,25.00
81698,1.16,-0.3,2.5,342.3,0.9879,-0.0228,0.0000,0.1532,0.07,0.13,-0.52,43.557056,6.967244,0.21,1,25.00
81698,1.16,-0.3,2.5,342.3,0.9879,-0.0228,0.0000,0.1532,0.07,0.13,-0.52,43.557056,6.967244,0.21,1,25.00
81698,1.17,-0.3,2.5,342.3,0.9879,-0.0228,0.0000,0.1532,0.07,0.13,-0.52,43.557056,6.967244,0.21,1,25.00
81698,1.17,-0.3,2.5,342.3,0.9879,-0.0228,0.0000,0.1532,0.07,0.13,-0.52,43.557056,6.967244,0.21,1,25.00
81711,1.17,-0.3,2.4,342.2,0.9878,-0.0217,0.0000,0.1538,0.02,0.15,-0.63,43.557056,6.967244,0.21,1,25.00
81711,1.17,-0.3,2.4,342.2,0.9878,-0.0217,0.0000,0.1538,0.02,0.15,-0.63,43.557056,6.967244,0.21,1,25.00
81711,1.17,-0.3,2.4,342.2,0.9878,-0.0217,0.0000,0.1538,0.02,0.15,-0.63,43.557056,6.967244,0.21,1,25.00
81711,1.17,-0.3,2.4,342.2,0.9878,-0.0217,0.0000,0.1538,0.02,0.15,-0.63,43.557056,6.967244,0.21,1,25.00
81711,1.17,-0.3,2.4,342.2,0.9878,-0.0217,0.0000,0.1538,0.02,0.15,-0.63,43.557056,6.967244,0.21,1,25.00
81724,1.17,-0.3,2.3,342.1,0.9877,-0.0209,0.0004,0.1543,0.01,0.19,-0.60,43.557056,6.967244,0.21,1,25.00
81724,1.17,-0.3,2.3,342.1,0.9877,-0.0209,0.0004,0.1543,0.01,0.19,-0.60,43.557056,6.967244,0.21,1,25.00
81724,1.17,-0.3,2.3,342.1,0.9877,-0.0209,0.0004,0.1543,0.01,0.19,-0.60,43.557056,6.967244,0.21,1,25.00
81724,1.17,-0.3,2.3,342.1,0.9877,-0.0209,0.0004,0.1543,0.01,0.19,-0.60,43.557056,6.967244,0.21,1,25.00
81724,1.17,-0.3,2.3,342.1,0.9877,-0.0209,0.0004,0.1543,0.01,0.19,-0.60,43.557056,6.967244,0.21,1,25.00
81737,1.16,-0.3,2.2,342.1,0.9877,-0.0202,0.0006,0.1547,0.05,0.20,-0.55,43.557056,6.967244,0.21,1,25.00
81737,1.17,-0.3,2.2,342.1,0.9877,-0.0202,0.0006,0.1547,0.05,0.20,-0.55,43.557056,6.967244,0.21,1,25.00
81737,1.16,-0.3,2.2,342.1,0.9877,-0.0202,0.0006,0.1547,0.05,0.20,-0.55,43.557056,6.967244,0.21,1,25.00
81737,1.16,-0.3,2.2,342.1,0.9877,-0.0202,0.0006,0.1547,0.05,0.20,-0.55,43.557056,6.967244,0.21,1,25.00
81737,1.16,-0.3,2.2,342.1,0.9877,-0.0202,0.0006,0.1547,0.05,0.20,-0.55,43.557056,6.967244,0.21,1,25.00
81749,1.16,-0.3,2.2,342.0,0.9876,-0.0199,0.0002,0.1554,0.12,0.09,-0.07,43.557056,6.967244,0.03,1,25.10
81749,1.16,-0.3,2.2,342.0,0.9876,-0.0199,0.0002,0.1554,0.12,0.09,-0.07,43.557056,6.967244,0.03,1,25.10
81749,1.15,-0.3,2.2,342.0,0.9876,-0.0199,0.0002,0.1554,0.12,0.09,-0.07,43.557056,6.967244,0.03,1,25.10
81749,1.16,-0.3,2.2,342.0,0.9876,-0.0199,0.0002,0.1554,0.12,0.09,-0.07,43.557056,6.967244,0.03,1,25.10
81749,1.16,-0.3,2.2,342.0,0.9876,-0.0199,0.0002,0.1554,0.12,0.09,-0.07,43.557056,6.967244,0.03,1,25.10
81762,1.15,-0.2,2.2,342.0,0.9876,-0.0202,-0.0005,0.1557,0.11,0.12,0.03,43.557056,6.967244,0.03,1,25.10
81762,1.16,-0.2,2.2,342.0,0.9876,-0.0202,-0.0005,0.1557,0.11,0.12,0.03,43.557056,6.967244,0.03,1,25.10
81762,1.16,-0.2,2.2,342.0,0.9876,-0.0202,-0.0005,0.1557,0.11,0.12,0.03,43.557056,6.967244,0.03,1,25.10
81762,1.16,-0.2,2.2,342.0,0.9876,-0.0202,-0.0005,0.1557,0.11,0.12,0.03,43.557056,6.967244,0.03,1,25.10
81762,1.16,-0.2,2.2,342.0,0.9876,-0.0202,-0.0005,0.1557,0.11,0.12,0.03,43.557056,6.967244,0.03,1,25.10
81775,1.16,-0.1,2.3,342.0,0.9875,-0.0206,-0.0016,0.1560,0.03,0.01,0.17,43.557056,6.967244,0.03,1,25.10
81775,1.16,-0.1,2.3,342.0,0.9875,-0.0206,-0.0016,0.1560,0.03,0.01,0.17,43.557056,6.967244,0.03,1,25.10
81775,1.16,-0.1,2.3,342.0,0.9875,-0.0206,-0.0016,0.1560,0.03,0.01,0.17,43.557056,6.967244,0.03,1,25.10
81775,1.16,-0.1,2.3,342.0,0.9875,-0.0206,-0.0016,0.1560,0.03,0.01,0.17,43.557056,6.967244,0.03,1,25.10
81775,1.16,-0.1,2.3,342.0,0.9875,-0.0206,-0.0016,0.1560,0.03,0.01,0.17,43.557056,6.967244,0.03,1,25.10
81788,1.16,0.0,2.3,342.0,0.9874,-0.0209,-0.0028,0.1563,0.03,0.01,0.17,43.557056,6.967244,0.03,1,25.10
81788,1.16,0.0,2.3,342.0,0.9874,-0.0209,-0.0028,0.1563,0.03,0.01,0.17,43.557056,6.967244,0.03,1,25.10
81788,1.16,0.0,2.3,342.0,0.9874,-0.0209,-0.0028,0.1563,0.03,0.01,0.17,43.557056,6.967244,0.03,1,25.10
81788,1.16,0.0,2.3,342.0,0.9874,-0.0209,-0.0028,0.1563,0.03,0.01,0.17,43.557056,6.967244,0.03,1,25.10
81788,1.15,0.0,2.3,342.0,0.9874,-0.0209,-0.0028,0.1563,0.03,0.01,0.17,43.557056,6.967244,0.03,1,25.10
81800,1.16,0.1,2.4,341.8,0.9873,-0.0209,-0.0046,0.1572,-0.00,0.01,0.22,43.557056,6.967244,-0.14,1,25.10
81800,1.15,0.1,2.4,341.8,0.9873,-0.0209,-0.0046,0.1572,-0.00,0.01,0.22,43.557056,6.967244,-0.14,1,25.10
81800,1.16,0.1,2.4,341.8,0.9873,-0.0209,-0.0046,0.1572,-0.00,0.01,0.22,43.557056,6.967244,-0.14,1,25.10
81800,1.16,0.1,2.4,341.8,0.9873,-0.0209,-0.0046,0.1572,-0.00,0.01,0.22,43.557056,6.967244,-0.14,1,25.10
81800,1.16,0.1,2.4,341.8,0.9873,-0.0209,-0.0046,0.1572,-0.00,0.01,0.22,43.557056,6.967244,-0.14,1,25.10
81813,1.16,0.1,2.4,341.8,0.9872,-0.0208,-0.0050,0.1577,0.00,0.07,0.05,43.557056,6.967244,-0.14,1,25.10
81813,1.16,0.1,2.4,341.8,0.9872,-0.0208,-0.0050,0.1577,0.00,0.07,0.05,43.557056,6.967244,-0.14,1,25.10
81813,1.15,0.1,2.4,341.8,0.9872,-0.0208,-0.0050,0.1577,0.00,0.07,0.05,43.557056,6.967244,-0.14,1,25.10
81813,1.15,0.1,2.4,341.8,0.9872,-0.0208,-0.0050,0.1577,0.00,0.07,0.05,43.557056,6.967244,-0.14,1,25.10
81813,1.16,0.1,2.4,341.8,0.9872,-0.0208,-0.0050,0.1577,0.00,0.07,0.05,43.557056,6.967244,-0.14,1,25.10
81826,1.16,0.1,2.3,341.7,0.9871,-0.0203,-0.0048,0.1582,0.07,0.20,-0.67,43.557056,6.967244,-0.14,1,25.10
81826,1.16,0.1,2.3,341.7,0.9871,-0.0203,-0.0048,0.1582,0.07,0.20,-0.67,43.557056,6.967244,-0.14,1,25.10
81826,1.16,0.1,2.3,341.7,0.9871,-0.0203,-0.0048,0.1582,0.07,0.20,-0.67,43.557056,6.967244,-0.14,1,25.10
81826,1.17,0.1,2.3,341.7,0.9871,-0.0203,-0.0048,0.1582,0.07,0.20,-0.67,43.557056,6.967244,-0.14,1,25.10
81826,1.19,0.1,2.3,341.7,0.9871,-0.0203,-0.0048,0.1582,0.07,0.20,-0.67,43.557056,6.967244,-0.14,1,25.10
81839,1.21,0.0,2.2,341.6,0.9871,-0.0195,-0.0041,0.1586,0.12,0.15,-0.83,43.557056,6.967244,-0.14,1,25.10
81839,1.24,0.0,2.2,341.6,0.9871,-0.0195,-0.0041,0.1586,0.12,0.15,-0.83,43.557056,6.967244,-0.14,1,25.10
81839,1.25,0.0,2.2,341.6,0.9871,-0.0195,-0.0041,0.1586,0.12,0.15,-0.83,43.557056,6.967244,-0.14,1,25.10
81839,1.26,0.0,2.2,341.6,0.9871,-0.0195,-0.0041,0.1586,0.12,0.15,-0.83,43.557056,6.967244,-0.14,1,25.10
81839,1.27,0.0,2.2,341.6,0.9871,-0.0195,-0.0041,0.1586,0.12,0.15,-0.83,43.557056,6.967244,-0.14,1,25.10
81851,1.27,-0.0,2.0,341.6,0.9870,-0.0184,-0.0018,0.1594,0.17,0.15,-0.91,43.557056,6.967244,-0.31,1,25.10
81851,1.27,-0.0,2.0,341.6,0.9870,-0.0184,-0.0018,0.1594,0.17,0.15,-0.91,43.557056,6.967244,-0.31,1,25.10
81851,1.27,-0.0,2.0,341.6,0.9870,-0.0184,-0.0018,0.1594,0.17,0.15,-0.91,43.557056,6.967244,-0.31,1,25.10
81851,1.27,-0.0,2.0,341.6,0.9870,-0.0184,-0.0018,0.1594,0.17,0.15,-0.91,43.557056,6.967244,-0.31,1,25.10
81851,1.27,-0.0,2.0,341.6,0.9870,-0.0184,-0.0018,0.1594,0.17,0.15,-0.91,43.557056,6.967244,-0.31,1,25.10
81864,1.27,-0.1,2.0,341.5,0.9869,-0.0182,-0.0011,0.1597,0.33,0.09,-0.80,43.557056,6.967244,-0.31,1,25.10
81864,1.27,-0.1,2.0,341.5,0.9869,-0.0182,-0.0011,0.1597,0.33,0.09,-0.80,43.557056,6.967244,-0.31,1,25.10
81864,1.27,-0.1,2.0,341.5,0.9869,-0.0182,-0.0011,0.1597,0.33,0.09,-0.80,43.557056,6.967244,-0.31,1,25.10
81864,1.27,-0.1,2.0,341.5,0.9869,-0.0182,-0.0011,0.1597,0.33,0.09,-0.80,43.557056,6.967244,-0.31,1,25.10
81864,1.28,-0.1,2.0,341.5,0.9869,-0.0182,-0.0011,0.1597,0.33,0.09,-0.80,43.557056,6.967244,-0.31,1,25.10
81877,1.28,-0.1,2.0,341.5,0.9868,-0.0187,-0.0007,0.1603,0.27,0.00,-0.30,43.557056,6.967244,-0.31,1,25.10
81877,1.28,-0.1,2.0,341.5,0.9868,-0.0187,-0.0007,0.1603,0.27,0.00,-0.30,43.557056,6.967244,-0.31,1,25.10
81877,1.29,-0.1,2.0,341.5,0.9868,-0.0187,-0.0007,0.1603,0.27,0.00,-0.30,43.557056,6.967244,-0.31,1,25.10
81877,1.29,-0.1,2.0,341.5,0.9868,-0.0187,-0.0007,0.1603,0.27,0.00,-0.30,43.557056,6.967244,-0.31,1,25.10
81877,1.29,-0.1,2.0,341.5,0.9868,-0.0187,-0.0007,0.1603,0.27,0.00,-0.30,43.557056,6.967244,-0.31,1,25.10
81890,1.29,-0.2,2.1,341.5,0.9868,-0.0193,-0.0011,0.1604,0.18,-0.03,0.07,43.557056,6.967244,-0.31,1,25.10
81890,1.29,-0.2,2.1,341.5,0.9868,-0.0193,-0.0011,0.1604,0.18,-0.03,0.07,43.557056,6.967244,-0.31,1,25.10
81890,1.29,-0.2,2.1,341.5,0.9868,-0.0193,-0.0011,0.1604,0.18,-0.03,0.07,43.557056,6.967244,-0.31,1,25.10
81890,1.28,-0.2,2.1,341.5,0.9868,-0.0193,-0.0011,0.1604,0.18,-0.03,0.07,43.557056,6.967244,-0.31,1,25.10
81890,1.26,-0.2,2.1,341.5,0.9868,-0.0193,-0.0011,0.1604,0.18,-0.03,0.07,43.557056,6.967244,-0.31,1,25.10
81902,1.23,-0.1,2.2,341.5,0.9868,-0.0198,-0.0019,0.1605,0.15,0.22,0.20,43.557056,6.967244,-0.50,1,25.10
81902,1.19,-0.1,2.2,341.5,0.9868,-0.0198,-0.0019,0.1605,0.15,0.22,0.20,43.557056,6.967244,-0.50,1,25.10
81902,1.17,-0.1,2.2,341.5,0.9868,-0.0198,-0.0019,0.1605,0.15,0.22,0.20,43.557056,6.967244,-0.50,1,25.10
81902,1.17,-0.1,2.2,341.5,0.9868,-0.0198,-0.0019,0.1605,0.15,0.22,0.20,43.557056,6.967244,-0.50,1,25.10
81902,1.16,-0.1,2.2,341.5,0.9868,-0.0198,-0.0019,0.1605,0.15,0.22,0.20,43.557056,6.967244,-0.50,1,25.10
81915,1.16,0.0,2.3,341.4,0.9867,-0.0200,-0.0030,0.1610,0.20,0.25,-0.00,43.557056,6.967244,-0.50,1,25.10
81915,1.16,0.0,2.3,341.4,0.9867,-0.0200,-0.0030,0.1610,0.20,0.25,-0.00,43.557056,6.967244,-0.50,1,25.10
81915,1.16,0.0,2.3,341.4,0.9867,-0.0200,-0.0030,0.1610,0.20,0.25,-0.00,43.557056,6.967244,-0.50,1,25.10
81915,1.16,0.0,2.3,341.4,0.9867,-0.0200,-0.0030,0.1610,0.20,0.25,-0.00,43.557056,6.967244,-0.50,1,25.10
81915,1.16,0.0,2.3,341.4,0.9867,-0.0200,-0.0030,0.1610,0.20,0.25,-0.00,43.557056,6.967244,-0.50,1,25.10
81928,1.16,0.0,2.3,341.3,0.9865,-0.0192,-0.0051,0.1621,0.40,0.12,-0.28,43.557056,6.967244,-0.50,1,25.10
81928,1.16,0.0,2.3,341.3,0.9865,-0.0192,-0.0051,0.1621,0.40,0.12,-0.28,43.557056,6.967244,-0.50,1,25.10
81928,1.16,0.0,2.3,341.3,0.9865,-0.0192,-0.0051,0.1621,0.40,0.12,-0.28,43.557056,6.967244,-0.50,1,25.10
81928,1.16,0.0,2.3,341.3,0.9865,-0.0192,-0.0051,0.1621,0.40,0.12,-0.28,43.557056,6.967244,-0.50,1,25.10
81928,1.16,0.0,2.3,341.3,0.9865,-0.0192,-0.0051,0.1621,0.40,0.12,-0.28,43.557056,6.967244,-0.50,1,25.10
81941,1.16,0.1,2.2,341.3,0.9864,-0.0187,-0.0057,0.1627,0.49,-0.03,-0.40,43.557056,6.967244,-0.50,1,25.20
81941,1.16,0.1,2.2,341.3,0.9864,-0.0187,-0.0057,0.1627,0.49,-0.03,-0.40,43.557056,6.967244,-0.50,1,25.20
81941,1.16,0.1,2.2,341.3,0.9864,-0.0187,-0.0057,0.1627,0.49,-0.03,-0.40,43.557056,6.967244,-0.50,1,25.20
81941,1.17,0.1,2.2,341.3,0.9864,-0.0187,-0.0057,0.1627,0.49,-0.03,-0.40,43.557056,6.967244,-0.50,1,25.20
81941,1.17,0.1,2.2,341.3,0.9864,-0.0187,-0.0057,0.1627,0.49,-0.03,-0.40,43.557056,6.967244,-0.50,1,25.20
81953,1.19,0.3,2.1,341.1,0.9863,-0.0187,-0.0060,0.1630,0.55,0.01,-0.38,43.557056,6.967244,-0.69,1,25.20
81953,1.20,0.3,2.1,341.1,0.9863,-0.0187,-0.0060,0.1630,0.55,0.01,-0.38,43.557056,6.967244,-0.69,1,25.20
81953,1.24,0.3,2.1,341.1,0.9863,-0.0187,-0.0060,0.1630,0.55,0.01,-0.38,43.557056,6.967244,-0.69,1,25.20
81953,1.27,0.3,2.1,341.1,0.9863,-0.0187,-0.0060,0.1630,0.55,0.01,-0.38,43.557056,6.967244,-0.69,1,25.20
81953,1.29,0.3,2.1,341.1,0.9863,-0.0187,-0.0060,0.1630,0.55,0.01,-0.38,43.557056,6.967244,-0.69,1,25.20
81966,1.29,0.1,2.2,341.2,0.9864,-0.0194,-0.0049,0.1628,0.40,0.07,-0.37,43.557056,6.967244,-0.69,1,25.20
81966,1.29,0.1,2.2,341.2,0.9864,-0.0194,-0.0049,0.1628,0.40,0.07,-0.37,43.557056,6.967244,-0.69,1,25.20
81966,1.29,0.1,2.2,341.2,0.9864,-0.0194,-0.0049,0.1628,0.40,0.07,-0.37,43.557056,6.967244,-0.69,1,25.20
81966,1.29,0.1,2.2,341.2,0.9864,-0.0194,-0.0049,0.1628,0.40,0.07,-0.37,43.557056,6.967244,-0.69,1,25.20
81966,1.29,0.1,2.2,341.2,0.9864,-0.0194,-0.0049,0.1628,0.40,0.07,-0.37,43.557056,6.967244,-0.69,1,25.20
81979,1.28,0.0,2.3,341.2,0.9865,-0.0199,-0.0037,0.1624,0.15,0.15,0.05,43.557056,6.967244,-0.69,1,25.20
81979,1.27,0.0,2.3,341.2,0.9865,-0.0199,-0.0037,0.1624,0.15,0.15,0.05,43.557056,6.967244,-0.69,1,25.20
81979,1.27,0.0,2.3,341.2,0.9865,-0.0199,-0.0037,0.1624,0.15,0.15,0.05,43.557056,6.967244,-0.69,1,25.20
81979,1.27,0.0,2.3,341.2,0.9865,-0.0199,-0.0037,0.1624,0.15,0.15,0.05,43.557056,6.967244,-0.69,1,25.20
81979,1.26,0.0,2.3,341.2,0.9865,-0.0199,-0.0037,0.1624,0.15,0.15,0.05,43.557056,6.967244,-0.69,1,25.20
81991,1.26,-0.3,2.3,341.4,0.9866,-0.0206,-0.0004,0.1611,0.03,0.11,0.19,43.557056,6.967244,-0.69,1,25.20
81991,1.26,-0.3,2.3,341.4,0.9866,-0.0206,-0.0004,0.1611,0.03,0.11,0.19,43.557056,6.967244,-0.69,1,25.20
81991,1.26,-0.3,2.3,341.4,0.9866,-0.0206,-0.0004,0.1611,0.03,0.11,0.19,43.557056,6.967244,-0.69,1,25.20
81991,1.26,-0.3,2.3,341.4,0.9866,-0.0206,-0.0004,0.1611,0.03,0.11,0.19,43.557056,6.967244,-0.69,1,25.20
81991,1.25,-0.3,2.3,341.4,0.9866,-0.0206,-0.0004,0.1611,0.03,0.11,0.19,43.557056,6.967244,-0.69,1,25.20
82004,1.25,-0.3,2.3,341.4,0.9866,-0.0206,-0.0004,0.1611,0.15,0.12,0.05,43.557056,6.967244,-0.87,1,25.20
82004,1.26,-0.3,2.3,341.4,0.9866,-0.0206,-0.0004,0.1611,0.15,0.12,0.05,43.557056,6.967244,-0.87,1,25.20
82004,1.26,-0.3,2.3,341.4,0.9866,-0.0206,-0.0004,0.1611,0.15,0.12,0.05,43.557056,6.967244,-0.87,1,25.20
82004,1.26,-0.3,2.3,341.4,0.9866,-0.0206,-0.0004,0.1611,0.15,0.12,0.05,43.557056,6.967244,-0.87,1,25.20
82004,1.26,-0.3,2.3,341.4,0.9866,-0.0206,-0.0004,0.1611,0.15,0.12,0.05,43.557056,6.967244,-0.87,1,25.20
82017,1.26,-0.5,2.2,341.5,0.9868,-0.0207,0.0020,0.1603,0.18,0.15,-0.00,43.557056,6.967244,-0.87,1,25.20
82017,1.26,-0.5,2.2,341.5,0.9868,-0.0207,0.0020,0.1603,0.18,0.15,-0.00,43.557056,6.967244,-0.87,1,25.20
82017,1.27,-0.5,2.2,341.5,0.9868,-0.0207,0.0020,0.1603,0.18,0.15,-0.00,43.557056,6.967244,-0.87,1,25.20
82017,1.27,-0.5,2.2,341.5,0.9868,-0.0207,0.0020,0.1603,0.18,0.15,-0.00,43.557056,6.967244,-0.87,1,25.20
82017,1.27,-0.5,2.2,341.5,0.9868,-0.0207,0.0020,0.1603,0.18,0.15,-0.00,43.557056,6.967244,-0.87,1,25.20
82030,1.27,-0.6,2.2,341.5,0.9868,-0.0206,0.0026,0.1600,0.19,0.19,-0.18,43.557056,6.967244,-0.87,1,25.20
82030,1.28,-0.6,2.2,341.5,0.9868,-0.0206,0.0026,0.1600,0.19,0.19,-0.18,43.557056,6.967244,-0.87,1,25.20
82030,1.28,-0.6,2.2,341.5,0.9868,-0.0206,0.0026,0.1600,0.19,0.19,-0.18,43.557056,6.967244,-0.87,1,25.20
82030,1.28,-0.6,2.2,341.5,0.9868,-0.0206,0.0026,0.1600,0.19,0.19,-0.18,43.557056,6.967244,-0.87,1,25.20
82030,1.28,-0.6,2.2,341.5,0.9868,-0.0206,0.0026,0.1600,0.19,0.19,-0.18,43.557056,6.967244,-0.87,1,25.20
82043,1.28,-0.6,2.2,341.6,0.9869,-0.0206,0.0025,0.1594,0.15,0.01,-0.44,43.557056,6.967244,-0.87,1,25.20
82043,1.27,-0.6,2.2,341.6,0.9869,-0.0206,0.0025,0.1594,0.15,0.01,-0.44,43.557056,6.967244,-0.87,1,25.20
82043,1.25,-0.6,2.2,341.6,0.9869,-0.0206,0.0025,0.1594,0.15,0.01,-0.44,43.557056,6.967244,-0.87,1,25.20
82043,1.23,-0.6,2.2,341.6,0.9869,-0.0206,0.0025,0.1594,0.15,0.01,-0.44,43.557056,6.967244,-0.87,1,25.20
82043,1.21,-0.6,2.2,341.6,0.9869,-0.0206,0.0025,0.1594,0.15,0.01,-0.44,43.557056,6.967244,-0.87,1,25.20
82055,1.19,-0.5,2.2,341.6,0.9869,-0.0207,0.0020,0.1592,0.10,0.05,-0.45,43.557056,6.967244,-1.04,1,25.29
82055,1.19,-0.5,2.2,341.6,0.9869,-0.0207,0.0020,0.1592,0.10,0.05,-0.45,43.557056,6.967244,-1.04,1,25.29
82055,1.17,-0.5,2.2,341.6,0.9869,-0.0207,0.0020,0.1592,0.10,0.05,-0.45,43.557056,6.967244,-1.04,1,25.29
82055,1.17,-0.5,2.2,341.6,0.9869,-0.0207,0.0020,0.1592,0.10,0.05,-0.45,43.557056,6.967244,-1.04,1,25.29
82055,1.17,-0.5,2.2,341.6,0.9869,-0.0207,0.0020,0.1592,0.10,0.05,-0.45,43.557056,6.967244,-1.04,1,25.29
82068,1.17,-0.5,2.3,341.6,0.9870,-0.0209,0.0016,0.1589,0.00,-0.00,-0.38,43.557056,6.967244,-1.04,1,25.29
82068,1.17,-0.5,2.3,341.6,0.9870,-0.0209,0.0016,0.1589,0.00,-0.00,-0.38,43.557056,6.967244,-1.04,1,25.29
82068,1.19,-0.5,2.3,341.6,0.9870,-0.0209,0.0016,0.1589,0.00,-0.00,-0.38,43.557056,6.967244,-1.04,1,25.29
82068,1.19,-0.5,2.3,341.6,0.9870,-0.0209,0.0016,0.1589,0.00,-0.00,-0.38,43.557056,6.967244,-1.04,1,25.29
82068,1.21,-0.5,2.3,341.6,0.9870,-0.0209,0.0016,0.1589,0.00,-0.00,-0.38,43.557056,6.967244,-1.04,1,25.29
82081,1.24,-0.5,2.3,341.6,0.9871,-0.0211,0.0015,0.1586,-0.07,-0.00,-0.34,43.557056,6.967244,-1.04,1,25.29
82081,1.27,-0.5,2.3,341.6,0.9871,-0.0211,0.0015,0.1586,-0.07,-0.00,-0.34,43.557056,6.967244,-1.04,1,25.29
82081,1.28,-0.5,2.3,341.6,0.9871,-0.0211,0.0015,0.1586,-0.07,-0.00,-0.34,43.557056,6.967244,-1.04,1,25.29
82081,1.29,-0.5,2.3,341.6,0.9871,-0.0211,0.0015,0.1586,-0.07,-0.00,-0.34,43.557056,6.967244,-1.04,1,25.29
82081,1.29,-0.5,2.3,341.6,0.9871,-0.0211,0.0015,0.1586,-0.07,-0.00,-0.34,43.557056,6.967244,-1.04,1,25.29
82094,1.29,-0.7,2.3,341.8,0.9872,-0.0217,0.0033,0.1577,-0.05,0.09,0.00,43.557056,6.967244,-1.04,1,25.29
82094,1.29,-0.7,2.3,341.8,0.9872,-0.0217,0.0033,0.1577,-0.05,0.09,0.00,43.557056,6.967244,-1.04,1,25.29
82094,1.28,-0.7,2.3,341.8,0.9872,-0.0217,0.0033,0.1577,-0.05,0.09,0.00,43.557056,6.967244,-1.04,1,25.29
82094,1.27,-0.7,2.3,341.8,0.9872,-0.0217,0.0033,0.1577,-0.05,0.09,0.00,43.557056,6.967244,-1.04,1,25.29
82094,1.27,-0.7,2.3,341.8,0.9872,-0.0217,0.0033,0.1577,-0.05,0.09,0.00,43.557056,6.967244,-1.04,1,25.29
82106,1.26,-0.9,2.3,341.8,0.9873,-0.0219,0.0050,0.1572,0.02,0.05,0.03,43.557056,6.967244,-1.23,1,25.29
82106,1.26,-0.9,2.3,341.8,0.9873,-0.0219,0.0050,0.1572,0.02,0.05,0.03,43.557056,6.967244,-1.23,1,25.29
82106,1.25,-0.9,2.3,341.8,0.9873,-0.0219,0.0050,0.1572,0.02,0.05,0.03,43.557056,6.967244,-1.23,1,25.29
82106,1.25,-0.9,2.3,341.8,0.9873,-0.0219,0.0050,0.1572,0.02,0.05,0.03,43.557056,6.967244,-1.23,1,25.29
82106,1.25,-0.9,2.3,341.8,0.9873,-0.0219,0.0050,0.1572,0.02,0.05,0.03,43.557056,6.967244,-1.23,1,25.29
82119,1.25,-1.1,2.3,341.9,0.9873,-0.0221,0.0067,0.1569,0.11,0.00,0.17,43.557056,6.967244,-1.23,1,25.29
82119,1.25,-1.1,2.3,341.9,0.9873,-0.0221,0.0067,0.1569,0.11,0.00,0.17,43.557056,6.967244,-1.23,1,25.29
82119,1.25,-1.1,2.3,341.9,0.9873,-0.0221,0.0067,0.1569,0.11,0.00,0.17,43.557056,6.967244,-1.23,1,25.29
82119,1.25,-1.1,2.3,341.9,0.9873,-0.0221,0.0067,0.1569,0.11,0.00,0.17,43.557056,6.967244,-1.23,1,25.29
82119,1.25,-1.1,2.3,341.9,0.9873,-0.0221,0.0067,0.1569,0.11,0.00,0.17,43.557056,6.967244,-1.23,1,25.29
82132,1.25,-1.3,2.3,341.9,0.9873,-0.0222,0.0083,0.1566,0.25,0.07,0.28,43.557056,6.967244,-1.23,1,25.29
82132,1.25,-1.3,2.3,341.9,0.9873,-0.0222,0.0083,0.1566,0.25,0.07,0.28,43.557056,6.967244,-1.23,1,25.29
82132,1.25,-1.3,2.3,341.9,0.9873,-0.0222,0.0083,0.1566,0.25,0.07,0.28,43.557056,6.967244,-1.23,1,25.29
82132,1.25,-1.3,2.3,341.9,0.9873,-0.0222,0.0083,0.1566,0.25,0.07,0.28,43.557056,6.967244,-1.23,1,25.29
82132,1.25,-1.3,2.3,341.9,0.9873,-0.0222,0.0083,0.1566,0.25,0.07,0.28,43.557056,6.967244,-1.23,1,25.29
82145,1.25,-1.5,2.3,342.0,0.9874,-0.0226,0.0104,0.1558,0.22,0.09,0.05,43.557056,6.967244,-1.23,1,25.29
82145,1.25,-1.5,2.3,342.0,0.9874,-0.0226,0.0104,0.1558,0.22,0.09,0.05,43.557056,6.967244,-1.23,1,25.29
82145,1.25,-1.5,2.3,342.0,0.9874,-0.0226,0.0104,0.1558,0.22,0.09,0.05,43.557056,6.967244,-1.23,1,25.29
82145,1.25,-1.5,2.3,342.0,0.9874,-0.0226,0.0104,0.1558,0.22,0.09,0.05,43.557056,6.967244,-1.23,1,25.29
82145,1.25,-1.5,2.3,342.0,0.9874,-0.0226,0.0104,0.1558,0.22,0.09,0.05,43.557056,6.967244,-1.23,1,25.29
82157,1.26,-1.6,2.3,342.0,0.9874,-0.0227,0.0108,0.1556,0.18,0.05,0.00,43.557056,6.967244,-1.42,1,25.29
82157,1.26,-1.6,2.3,342.0,0.9874,-0.0227,0.0108,0.1556,0.18,0.05,0.00,43.557056,6.967244,-1.42,1,25.29
82157,1.26,-1.6,2.3,342.0,0.9874,-0.0227,0.0108,0.1556,0.18,0.05,0.00,43.557056,6.967244,-1.42,1,25.29
82157,1.26,-1.6,2.3,342.0,0.9874,-0.0227,0.0108,0.1556,0.18,0.05,0.00,43.557056,6.967244,-1.42,1,25.29
82157,1.26,-1.6,2.3,342.0,0.9874,-0.0227,0.0108,0.1556,0.18,0.05,0.00,43.557056,6.967244,-1.42,1,25.29
82170,1.26,-1.6,2.3,342.0,0.9875,-0.0226,0.0110,0.1553,-0.01,-0.11,-0.11,43.557056,6.967244,-1.42,1,25.29
82170,1.26,-1.6,2.3,342.0,0.9875,-0.0226,0.0110,0.1553,-0.01,-0.11,-0.11,43.557056,6.967244,-1.42,1,25.29
82170,1.27,-1.6,2.3,342.0,0.9875,-0.0226,0.0110,0.1553,-0.01,-0.11,-0.11,43.557056,6.967244,-1.42,1,25.29
82170,1.27,-1.6,2.3,342.0,0.9875,-0.0226,0.0110,0.1553,-0.01,-0.11,-0.11,43.557056,6.967244,-1.42,1,25.29
82170,1.26,-1.6,2.3,342.0,0.9875,-0.0226,0.0110,0.1553,-0.01,-0.11,-0.11,43.557056,6.967244,-1.42,1,25.29
82183,1.26,-1.6,2.3,342.1,0.9875,-0.0223,0.0111,0.1551,-0.10,-0.17,-0.15,43.557056,6.967244,-1.42,1,25.29
82183,1.26,-1.6,2.3,342.1,0.9875,-0.0223,0.0111,0.1551,-0.10,-0.17,-0.15,43.557056,6.967244,-1.42,1,25.29
82183,1.26,-1.6,2.3,342.1,0.9875,-0.0223,0.0111,0.1551,-0.10,-0.17,-0.15,43.557056,6.967244,-1.42,1,25.29
82183,1.26,-1.6,2.3,342.1,0.9875,-0.0223,0.0111,0.1551,-0.10,-0.17,-0.15,43.557056,6.967244,-1.42,1,25.29
82183,1.26,-1.6,2.3,342.1,0.9875,-0.0223,0.0111,0.1551,-0.10,-0.17,-0.15,43.557056,6.967244,-1.42,1,25.29
82195,1.26,-1.6,2.2,342.1,0.9876,-0.0217,0.0118,0.1549,-0.07,-0.27,-0.13,43.557056,6.967244,-1.42,1,25.29
82195,1.25,-1.6,2.2,342.1,0.9876,-0.0217,0.0118,0.1549,-0.07,-0.27,-0.13,43.557056,6.967244,-1.42,1,25.29
82195,1.25,-1.6,2.2,342.1,0.9876,-0.0217,0.0118,0.1549,-0.07,-0.27,-0.13,43.557056,6.967244,-1.42,1,25.29
82195,1.26,-1.6,2.2,342.1,0.9876,-0.0217,0.0118,0.1549,-0.07,-0.27,-0.13,43.557056,6.967244,-1.42,1,25.29
82195,1.26,-1.6,2.2,342.1,0.9876,-0.0217,0.0118,0.1549,-0.07,-0.27,-0.13,43.557056,6.967244,-1.42,1,25.29
82208,1.26,-1.7,2.1,342.1,0.9876,-0.0215,0.0125,0.1548,-0.10,-0.34,-0.12,43.557056,6.967244,-1.61,1,25.29
82208,1.26,-1.7,2.1,342.1,0.9876,-0.0215,0.0125,0.1548,-0.10,-0.34,-0.12,43.557056,6.967244,-1.61,1,25.29
82208,1.26,-1.7,2.1,342.1,0.9876,-0.0215,0.0125,0.1548,-0.10,-0.34,-0.12,43.557056,6.967244,-1.61,1,25.29
82208,1.26,-1.7,2.1,342.1,0.9876,-0.0215,0.0125,0.1548,-0.10,-0.34,-0.12,43.557056,6.967244,-1.61,1,25.29
82208,1.26,-1.7,2.1,342.1,0.9876,-0.0215,0.0125,0.1548,-0.10,-0.34,-0.12,43.557056,6.967244,-1.61,1,25.29
82221,1.26,-1.8,2.1,342.1,0.9876,-0.0213,0.0133,0.1547,-0.10,-0.28,-0.11,43.557056,6.967244,-1.61,1,25.29
82221,1.26,-1.8,2.1,342.1,0.9876,-0.0213,0.0133,0.1547,-0.10,-0.28,-0.11,43.557056,6.967244,-1.61,1,25.29
82221,1.26,-1.8,2.1,342.1,0.9876,-0.0213,0.0133,0.1547,-0.10,-0.28,-0.11,43.557056,6.967244,-1.61,1,25.29
82221,1.26,-1.8,2.1,342.1,0.9876,-0.0213,0.0133,0.1547,-0.10,-0.28,-0.11,43.557056,6.967244,-1.61,1,25.29
82221,1.26,-1.8,2.1,342.1,0.9876,-0.0213,0.0133,0.1547,-0.10,-0.28,-0.11,43.557056,6.967244,-1.61,1,25.29
82234,1.26,-1.9,2.1,342.1,0.9876,-0.0213,0.0141,0.1547,-0.03,-0.22,-0.22,43.557056,6.967244,-1.61,1,25.29
82234,1.26,-1.9,2.1,342.1,0.9876,-0.0213,0.0141,0.1547,-0.03,-0.22,-0.22,43.557056,6.967244,-1.61,1,25.29
82234,1.26,-1.9,2.1,342.1,0.9876,-0.0213,0.0141,0.1547,-0.03,-0.22,-0.22,43.557056,6.967244,-1.61,1,25.29
82234,1.26,-1.9,2.1,342.1,0.9876,-0.0213,0.0141,0.1547,-0.03,-0.22,-0.22,43.557056,6.967244,-1.61,1,25.29
82234,1.26,-1.9,2.1,342.1,0.9876,-0.0213,0.0141,0.1547,-0.03,-0.22,-0.22,43.557056,6.967244,-1.61,1,25.29
82247,1.25,-2.0,2.1,342.1,0.9876,-0.0214,0.0150,0.1548,-0.03,-0.19,-0.45,43.557056,6.967244,-1.61,1,25.29
82247,1.24,-2.0,2.1,342.1,0.9876,-0.0214,0.0150,0.1548,-0.03,-0.19,-0.45,43.557056,6.967244,-1.61,1,25.29
82247,1.22,-2.0,2.1,342.1,0.9876,-0.0214,0.0150,0.1548,-0.03,-0.19,-0.45,43.557056,6.967244,-1.61,1,25.29
82247,1.20,-2.0,2.1,342.1,0.9876,-0.0214,0.0150,0.1548,-0.03,-0.19,-0.45,43.557056,6.967244,-1.61,1,25.29
82247,1.17,-2.0,2.1,342.1,0.9876,-0.0214,0.0150,0.1548,-0.03,-0.19,-0.45,43.557056,6.967244,-1.61,1,25.29
82259,1.16,-2.0,2.1,342.1,0.9875,-0.0213,0.0149,0.1549,-0.07,-0.17,-0.46,43.557056,6.967244,-1.77,1,25.29
82259,1.16,-2.0,2.1,342.1,0.9875,-0.0213,0.0149,0.1549,-0.07,-0.17,-0.46,43.557056,6.967244,-1.77,1,25.29
82259,1.16,-2.0,2.1,342.1,0.9875,-0.0213,0.0149,0.1549,-0.07,-0.17,-0.46,43.557056,6.967244,-1.77,1,25.29
82259,1.15,-2.0,2.1,342.1,0.9875,-0.0213,0.0149,0.1549,-0.07,-0.17,-0.46,43.557056,6.967244,-1.77,1,25.29
82259,1.15,-2.0,2.1,342.1,0.9875,-0.0213,0.0149,0.1549,-0.07,-0.17,-0.46,43.557056,6.967244,-1.77,1,25.29
82272,1.15,-2.0,2.1,342.1,0.9875,-0.0211,0.0146,0.1551,-0.10,-0.18,-0.46,43.557056,6.967244,-1.77,1,25.29
82272,1.15,-2.0,2.1,342.1,0.9875,-0.0211,0.0146,0.1551,-0.10,-0.18,-0.46,43.557056,6.967244,-1.77,1,25.29
82272,1.15,-2.0,2.1,342.1,0.9875,-0.0211,0.0146,0.1551,-0.10,-0.18,-0.46,43.557056,6.967244,-1.77,1,25.29
82272,1.15,-2.0,2.1,342.1,0.9875,-0.0211,0.0146,0.1551,-0.10,-0.18,-0.46,43.557056,6.967244,-1.77,1,25.29
82272,1.15,-2.0,2.1,342.1,0.9875,-0.0211,0.0146,0.1551,-0.10,-0.18,-0.46,43.557056,6.967244,-1.77,1,25.29
82285,1.15,-1.9,2.0,342.0,0.9875,-0.0209,0.0142,0.1553,-0.07,-0.07,-0.50,43.557056,6.967244,-1.77,1,25.29
82285,1.16,-1.9,2.0,342.0,0.9875,-0.0209,0.0142,0.1553,-0.07,-0.07,-0.50,43.557056,6.967244,-1.77,1,25.29
82285,1.16,-1.9,2.0,342.0,0.9875,-0.0209,0.0142,0.1553,-0.07,-0.07,-0.50,43.557056,6.967244,-1.77,1,25.29
82285,1.16,-1.9,2.0,342.0,0.9875,-0.0209,0.0142,0.1553,-0.07,-0.07,-0.50,43.557056,6.967244,-1.77,1,25.29
82285,1.17,-1.9,2.0,342.0,0.9875,-0.0209,0.0142,0.1553,-0.07,-0.07,-0.50,43.557056,6.967244,-1.77,1,25.29
82298,1.20,-1.9,2.0,342.0,0.9874,-0.0208,0.0139,0.1560,-0.10,-0.07,-0.45,43.557056,6.967244,-1.77,1,25.29
82298,1.23,-1.9,2.0,342.0,0.9874,-0.0208,0.0139,0.1560,-0.10,-0.07,-0.45,43.557056,6.967244,-1.77,1,25.29
82298,1.25,-1.9,2.0,342.0,0.9874,-0.0208,0.0139,0.1560,-0.10,-0.07,-0.45,43.557056,6.967244,-1.77,1,25.29
82298,1.26,-1.9,2.0,342.0,0.9874,-0.0208,0.0139,0.1560,-0.10,-0.07,-0.45,43.557056,6.967244,-1.77,1,25.29
82298,1.27,-1.9,2.0,342.0,0.9874,-0.0208,0.0139,0.1560,-0.10,-0.07,-0.45,43.557056,6.967244,-1.77,1,25.29
82310,1.27,-2.0,2.0,342.0,0.9873,-0.0208,0.0144,0.1563,-0.09,-0.02,-0.40,43.557056,6.967244,-1.96,1,25.29
82310,1.27,-2.0,2.0,342.0,0.9873,-0.0208,0.0144,0.1563,-0.09,-0.02,-0.40,43.557056,6.967244,-1.96,1,25.29
82310,1.28,-2.0,2.0,342.0,0.9873,-0.0208,0.0144,0.1563,-0.09,-0.02,-0.40,43.557056,6.967244,-1.96,1,25.29
82310,1.28,-2.0,2.0,342.0,0.9873,-0.0208,0.0144,0.1563,-0.09,-0.02,-0.40,43.557056,6.967244,-1.96,1,25.29
82310,1.28,-2.0,2.0,342.0,0.9873,-0.0208,0.0144,0.1563,-0.09,-0.02,-0.40,43.557056,6.967244,-1.96,1,25.29
82323,1.29,-2.0,2.0,341.9,0.9873,-0.0210,0.0151,0.1564,-0.02,-0.02,-0.30,43.557056,6.967244,-1.96,1,25.29
82323,1.29,-2.0,2.0,341.9,0.9873,-0.0210,0.0151,0.1564,-0.02,-0.02,-0.30,43.557056,6.967244,-1.96,1,25.29
82323,1.30,-2.0,2.0,341.9,0.9873,-0.0210,0.0151,0.1564,-0.02,-0.02,-0.30,43.557056,6.967244,-1.96,1,25.29
82323,1.30,-2.0,2.0,341.9,0.9873,-0.0210,0.0151,0.1564,-0.02,-0.02,-0.30,43.557056,6.967244,-1.96,1,25.29
82323,1.30,-2.0,2.0,341.9,0.9873,-0.0210,0.0151,0.1564,-0.02,-0.02,-0.30,43.557056,6.967244,-1.96,1,25.29
82336,1.30,-2.1,2.1,341.9,0.9873,-0.0214,0.0161,0.1566,-0.01,-0.05,-0.22,43.557056,6.967244,-1.96,1,25.29
82336,1.30,-2.1,2.1,341.9,0.9873,-0.0214,0.0161,0.1566,-0.01,-0.05,-0.22,43.557056,6.967244,-1.96,1,25.29
82336,1.30,-2.1,2.1,341.9,0.9873,-0.0214,0.0161,0.1566,-0.01,-0.05,-0.22,43.557056,6.967244,-1.96,1,25.29
82336,1.30,-2.1,2.1,341.9,0.9873,-0.0214,0.0161,0.1566,-0.01,-0.05,-0.22,43.557056,6.967244,-1.96,1,25.29
82336,1.30,-2.1,2.1,341.9,0.9873,-0.0214,0.0161,0.1566,-0.01,-0.05,-0.22,43.557056,6.967244,-1.96,1,25.29
82349,1.32,-2.3,2.1,341.8,0.9871,-0.0226,0.0178,0.1571,0.00,-0.07,0.02,43.557056,6.967244,-1.96,1,25.29
82349,1.32,-2.3,2.1,341.8,0.9871,-0.0226,0.0178,0.1571,0.00,-0.07,0.02,43.557056,6.967244,-1.96,1,25.29
82349,1.30,-2.3,2.1,341.8,0.9871,-0.0226,0.0178,0.1571,0.00,-0.07,0.02,43.557056,6.967244,-1.96,1,25.29
82349,1.32,-2.3,2.1,341.8,0.9871,-0.0226,0.0178,0.1571,0.00,-0.07,0.02,43.557056,6.967244,-1.96,1,25.29
82349,1.32,-2.3,2.1,341.8,0.9871,-0.0226,0.0178,0.1571,0.00,-0.07,0.02,43.557056,6.967244,-1.96,1,25.29
82361,1.30,-2.4,2.2,341.8,0.9870,-0.0230,0.0183,0.1574,-0.07,-0.11,0.00,43.557056,6.967244,-2.13,1,25.29
82361,1.32,-2.4,2.2,341.8,0.9870,-0.0230,0.0183,0.1574,-0.07,-0.11,0.00,43.557056,6.967244,-2.13,1,25.29
82361,1.32,-2.4,2.2,341.8,0.9870,-0.0230,0.0183,0.1574,-0.07,-0.11,0.00,43.557056,6.967244,-2.13,1,25.29
82361,1.30,-2.4,2.2,341.8,0.9870,-0.0230,0.0183,0.1574,-0.07,-0.11,0.00,43.557056,6.967244,-2.13,1,25.29
82361,1.30,-2.4,2.2,341.8,0.9870,-0.0230,0.0183,0.1574,-0.07,-0.11,0.00,43.557056,6.967244,-2.13,1,25.29
82374,1.32,-2.5,2.2,341.8,0.9869,-0.0231,0.0186,0.1578,-0.10,-0.02,-0.33,43.557056,6.967244,-2.13,1,25.20
82374,1.30,-2.5,2.2,341.8,0.9869,-0.0231,0.0186,0.1578,-0.10,-0.02,-0.33,43.557056,6.967244,-2.13,1,25.20
82374,1.30,-2.5,2.2,341.8,0.9869,-0.0231,0.0186,0.1578,-0.10,-0.02,-0.33,43.557056,6.967244,-2.13,1,25.20
82374,1.30,-2.5,2.2,341.8,0.9869,-0.0231,0.0186,0.1578,-0.10,-0.02,-0.33,43.557056,6.967244,-2.13,1,25.20
82374,1.30,-2.5,2.2,341.8,0.9869,-0.0231,0.0186,0.1578,-0.10,-0.02,-0.33,43.557056,6.967244,-2.13,1,25.20
82387,1.30,-2.5,2.2,341.7,0.9869,-0.0231,0.0186,0.1585,-0.05,0.00,-0.55,43.557056,6.967244,-2.13,1,25.20
82387,1.30,-2.5,2.2,341.7,0.9869,-0.0231,0.0186,0.1585,-0.05,0.00,-0.55,43.557056,6.967244,-2.13,1,25.20
82387,1.30,-2.5,2.2,341.7,0.9869,-0.0231,0.0186,0.1585,-0.05,0.00,-0.55,43.557056,6.967244,-2.13,1,25.20
82387,1.32,-2.5,2.2,341.7,0.9869,-0.0231,0.0186,0.1585,-0.05,0.00,-0.55,43.557056,6.967244,-2.13,1,25.20
82387,1.30,-2.5,2.2,341.7,0.9869,-0.0231,0.0186,0.1585,-0.05,0.00,-0.55,43.557056,6.967244,-2.13,1,25.20
82400,1.30,-2.4,2.1,341.5,0.9866,-0.0227,0.0182,0.1600,0.11,-0.00,-0.86,43.557056,6.967244,-2.13,1,25.20
82400,1.30,-2.4,2.1,341.5,0.9866,-0.0227,0.0182,0.1600,0.11,-0.00,-0.86,43.557056,6.967244,-2.13,1,25.20
82400,1.30,-2.4,2.1,341.5,0.9866,-0.0227,0.0182,0.1600,0.11,-0.00,-0.86,43.557056,6.967244,-2.13,1,25.20
82400,1.30,-2.4,2.1,341.5,0.9866,-0.0227,0.0182,0.1600,0.11,-0.00,-0.86,43.557056,6.967244,-2.13,1,25.20
82400,1.30,-2.4,2.1,341.5,0.9866,-0.0227,0.0182,0.1600,0.11,-0.00,-0.86,43.557056,6.967244,-2.13,1,25.20
82412,1.30,-2.4,2.1,341.4,0.9865,-0.0225,0.0179,0.1608,0.15,-0.03,-0.86,43.557056,6.967244,-2.31,1,25.20
82412,1.29,-2.4,2.1,341.4,0.9865,-0.0225,0.0179,0.1608,0.15,-0.03,-0.86,43.557056,6.967244,-2.31,1,25.20
82412,1.29,-2.4,2.1,341.4,0.9865,-0.0225,0.0179,0.1608,0.15,-0.03,-0.86,43.557056,6.967244,-2.31,1,25.20
82412,1.29,-2.4,2.1,341.4,0.9865,-0.0225,0.0179,0.1608,0.15,-0.03,-0.86,43.557056,6.967244,-2.31,1,25.20
82412,1.29,-2.4,2.1,341.4,0.9865,-0.0225,0.0179,0.1608,0.15,-0.03,-0.86,43.557056,6.967244,-2.31,1,25.20
82425,1.29,-2.3,2.1,341.3,0.9862,-0.0232,0.0176,0.1625,0.15,0.03,-0.57,43.557056,6.967244,-2.31,1,25.20
82425,1.29,-2.3,2.1,341.3,0.9862,-0.0232,0.0176,0.1625,0.15,0.03,-0.57,43.557056,6.967244,-2.31,1,25.20
82425,1.29,-2.3,2.1,341.3,0.9862,-0.0232,0.0176,0.1625,0.15,0.03,-0.57,43.557056,6.967244,-2.31,1,25.20
82425,1.29,-2.3,2.1,341.3,0.9862,-0.0232,0.0176,0.1625,0.15,0.03,-0.57,43.557056,6.967244,-2.31,1,25.20
82425,1.28,-2.3,2.1,341.3,0.9862,-0.0232,0.0176,0.1625,0.15,0.03,-0.57,43.557056,6.967244,-2.31,1,25.20
82438,1.28,-2.3,2.2,341.2,0.9861,-0.0241,0.0178,0.1630,0.07,-0.07,0.15,43.557056,6.967244,-2.31,1,25.20
82438,1.28,-2.3,2.2,341.2,0.9861,-0.0241,0.0178,0.1630,0.07,-0.07,0.15,43.557056,6.967244,-2.31,1,25.20
82438,1.28,-2.3,2.2,341.2,0.9861,-0.0241,0.0178,0.1630,0.07,-0.07,0.15,43.557056,6.967244,-2.31,1,25.20
82438,1.28,-2.3,2.2,341.2,0.9861,-0.0241,0.0178,0.1630,0.07,-0.07,0.15,43.557056,6.967244,-2.31,1,25.20
82438,1.28,-2.3,2.2,341.2,0.9861,-0.0241,0.0178,0.1630,0.07,-0.07,0.15,43.557056,6.967244,-2.31,1,25.20
82451,1.28,-2.5,2.4,341.1,0.9860,-0.0250,0.0181,0.1635,0.00,-0.03,0.52,43.557056,6.967244,-2.31,1,25.29
82451,1.28,-2.5,2.4,341.1,0.9860,-0.0250,0.0181,0.1635,0.00,-0.03,0.52,43.557056,6.967244,-2.31,1,25.29
82451,1.28,-2.5,2.4,341.1,0.9860,-0.0250,0.0181,0.1635,0.00,-0.03,0.52,43.557056,6.967244,-2.31,1,25.29
82451,1.28,-2.5,2.4,341.1,0.9860,-0.0250,0.0181,0.1635,0.00,-0.03,0.52,43.557056,6.967244,-2.31,1,25.29
82451,1.28,-2.5,2.4,341.1,0.9860,-0.0250,0.0181,0.1635,0.00,-0.03,0.52,43.557056,6.967244,-2.31,1,25.29
82463,1.29,-2.5,2.5,341.0,0.9859,-0.0258,0.0184,0.1640,0.00,0.02,0.63,43.557056,6.967244,-2.47,1,25.29
82463,1.29,-2.5,2.5,341.0,0.9859,-0.0258,0.0184,0.1640,0.00,0.02,0.63,43.557056,6.967244,-2.47,1,25.29
82463,1.29,-2.5,2.5,341.0,0.9859,-0.0258,0.0184,0.1640,0.00,0.02,0.63,43.557056,6.967244,-2.47,1,25.29
82463,1.29,-2.5,2.5,341.0,0.9859,-0.0258,0.0184,0.1640,0.00,0.02,0.63,43.557056,6.967244,-2.47,1,25.29
82463,1.29,-2.5,2.5,341.0,0.9859,-0.0258,0.0184,0.1640,0.00,0.02,0.63,43.557056,6.967244,-2.47,1,25.29
82476,1.29,-2.5,2.6,341.0,0.9856,-0.0263,0.0186,0.1654,0.07,0.00,0.09,43.557056,6.967244,-2.47,1,25.29
82476,1.28,-2.5,2.6,341.0,0.9856,-0.0263,0.0186,0.1654,0.07,0.00,0.09,43.557056,6.967244,-2.47,1,25.29
82476,1.29,-2.5,2.6,341.0,0.9856,-0.0263,0.0186,0.1654,0.07,0.00,0.09,43.557056,6.967244,-2.47,1,25.29
82476,1.28,-2.5,2.6,341.0,0.9856,-0.0263,0.0186,0.1654,0.07,0.00,0.09,43.557056,6.967244,-2.47,1,25.29
82476,1.28,-2.5,2.6,341.0,0.9856,-0.0263,0.0186,0.1654,0.07,0.00,0.09,43.557056,6.967244,-2.47,1,25.29
82489,1.28,-2.5,2.5,340.8,0.9855,-0.0260,0.0184,0.1663,0.11,0.00,-0.03,43.557056,6.967244,-2.47,1,25.29
82489,1.28,-2.5,2.5,340.8,0.9855,-0.0260,0.0184,0.1663,0.11,0.00,-0.03,43.557056,6.967244,-2.47,1,25.29
82489,1.28,-2.5,2.5,340.8,0.9855,-0.0260,0.0184,0.1663,0.11,0.00,-0.03,43.557056,6.967244,-2.47,1,25.29
82489,1.28,-2.5,2.5,340.8,0.9855,-0.0260,0.0184,0.1663,0.11,0.00,-0.03,43.557056,6.967244,-2.47,1,25.29
82489,1.28,-2.5,2.5,340.8,0.9855,-0.0260,0.0184,0.1663,0.11,0.00,-0.03,43.557056,6.967244,-2.47,1,25.29
82502,1.28,-2.5,2.5,340.6,0.9854,-0.0256,0.0180,0.1671,0.12,0.00,-0.22,43.557056,6.967244,-2.47,1,25.29
82502,1.28,-2.5,2.5,340.6,0.9854,-0.0256,0.0180,0.1671,0.12,0.00,-0.22,43.557056,6.967244,-2.47,1,25.29
82502,1.28,-2.5,2.5,340.6,0.9854,-0.0256,0.0180,0.1671,0.12,0.00,-0.22,43.557056,6.967244,-2.47,1,25.29
82502,1.28,-2.5,2.5,340.6,0.9854,-0.0256,0.0180,0.1671,0.12,0.00,-0.22,43.557056,6.967244,-2.47,1,25.29
82502,1.28,-2.5,2.5,340.6,0.9854,-0.0256,0.0180,0.1671,0.12,0.00,-0.22,43.557056,6.967244,-2.47,1,25.29
82514,1.28,-2.4,2.5,340.6,0.9852,-0.0254,0.0175,0.1679,0.03,0.00,-0.49,43.557056,6.967244,-2.64,1,25.29
82514,1.28,-2.4,2.5,340.6,0.9852,-0.0254,0.0175,0.1679,0.03,0.00,-0.49,43.557056,6.967244,-2.64,1,25.29
82514,1.28,-2.4,2.5,340.6,0.9852,-0.0254,0.0175,0.1679,0.03,0.00,-0.49,43.557056,6.967244,-2.64,1,25.29
82514,1.28,-2.4,2.5,340.6,0.9852,-0.0254,0.0175,0.1679,0.03,0.00,-0.49,43.557056,6.967244,-2.64,1,25.29
82514,1.28,-2.4,2.5,340.6,0.9852,-0.0254,0.0175,0.1679,0.03,0.00,-0.49,43.557056,6.967244,-2.64,1,25.29
82527,1.28,-2.3,2.5,340.4,0.9851,-0.0252,0.0168,0.1693,0.00,0.03,-0.40,43.557056,6.967244,-2.64,1,25.29
82527,1.28,-2.3,2.5,340.4,0.9851,-0.0252,0.0168,0.1693,0.00,0.03,-0.40,43.557056,6.967244,-2.64,1,25.29
82527,1.28,-2.3,2.5,340.4,0.9851,-0.0252,0.0168,0.1693,0.00,0.03,-0.40,43.557056,6.967244,-2.64,1,25.29
82527,1.28,-2.3,2.5,340.4,0.9851,-0.0252,0.0168,0.1693,0.00,0.03,-0.40,43.557056,6.967244,-2.64,1,25.29
82527,1.28,-2.3,2.5,340.4,0.9851,-0.0252,0.0168,0.1693,0.00,0.03,-0.40,43.557056,6.967244,-2.64,1,25.29
82540,1.28,-2.3,2.4,340.3,0.9849,-0.0249,0.0169,0.1699,0.00,0.05,-0.45,43.557056,6.967244,-2.64,1,25.39
82540,1.28,-2.3,2.4,340.3,0.9849,-0.0249,0.0169,0.1699,0.00,0.05,-0.45,43.557056,6.967244,-2.64,1,25.39
82540,1.29,-2.3,2.4,340.3,0.9849,-0.0249,0.0169,0.1699,0.00,0.05,-0.45,43.557056,6.967244,-2.64,1,25.39
82540,1.29,-2.3,2.4,340.3,0.9849,-0.0249,0.0169,0.1699,0.00,0.05,-0.45,43.557056,6.967244,-2.64,1,25.39
82540,1.28,-2.3,2.4,340.3,0.9849,-0.0249,0.0169,0.1699,0.00,0.05,-0.45,43.557056,6.967244,-2.64,1,25.39
82553,1.28,-2.3,2.3,340.3,0.9849,-0.0244,0.0172,0.1704,0.00,-0.07,-0.63,43.557056,6.967249,-2.64,1,25.39
82553,1.28,-2.3,2.3,340.3,0.9849,-0.0244,0.0172,0.1704,0.00,-0.07,-0.63,43.557056,6.967249,-2.64,1,25.39
82553,1.29,-2.3,2.3,340.3,0.9849,-0.0244,0.0172,0.1704,0.00,-0.07,-0.63,43.557056,6.967249,-2.64,1,25.39
82553,1.28,-2.3,2.3,340.3,0.9849,-0.0244,0.0172,0.1704,0.00,-0.07,-0.63,43.557056,6.967249,-2.64,1,25.39
82553,1.28,-2.3,2.3,340.3,0.9849,-0.0244,0.0172,0.1704,0.00,-0.07,-0.63,43.557056,6.967249,-2.64,1,25.39
82565,1.29,-2.5,2.3,340.2,0.9847,-0.0241,0.0187,0.1714,0.19,-0.10,-0.33,43.557056,6.967249,-2.82,1,25.39
82565,1.28,-2.5,2.3,340.2,0.9847,-0.0241,0.0187,0.1714,0.19,-0.10,-0.33,43.557056,6.967249,-2.82,1,25.39
82565,1.28,-2.5,2.3,340.2,0.9847,-0.0241,0.0187,0.1714,0.19,-0.10,-0.33,43.557056,6.967249,-2.82,1,25.39
82565,1.28,-2.5,2.3,340.2,0.9847,-0.0241,0.0187,0.1714,0.19,-0.10,-0.33,43.557056,6.967249,-2.82,1,25.39
82565,1.27,-2.5,2.3,340.2,0.9847,-0.0241,0.0187,0.1714,0.19,-0.10,-0.33,43.557056,6.967249,-2.82,1,25.39
82578,1.27,-2.6,2.3,340.1,0.9846,-0.0246,0.0197,0.1718,0.17,-0.05,-0.13,43.557056,6.967249,-2.82,1,25.39
82578,1.25,-2.6,2.3,340.1,0.9846,-0.0246,0.0197,0.1718,0.17,-0.05,-0.13,43.557056,6.967249,-2.82,1,25.39
82578,1.19,-2.6,2.3,340.1,0.9846,-0.0246,0.0197,0.1718,0.17,-0.05,-0.13,43.557056,6.967249,-2.82,1,25.39
82578,1.14,-2.6,2.3,340.1,0.9846,-0.0246,0.0197,0.1718,0.17,-0.05,-0.13,43.557056,6.967249,-2.82,1,25.39
82578,1.13,-2.6,2.3,340.1,0.9846,-0.0246,0.0197,0.1718,0.17,-0.05,-0.13,43.557056,6.967249,-2.82,1,25.39
82591,1.12,-2.8,2.4,340.1,0.9845,-0.0254,0.0206,0.1720,0.07,-0.00,0.15,43.557056,6.967249,-2.82,1,25.39
82591,1.12,-2.8,2.4,340.1,0.9845,-0.0254,0.0206,0.1720,0.07,-0.00,0.15,43.557056,6.967249,-2.82,1,25.39
82591,1.12,-2.8,2.4,340.1,0.9845,-0.0254,0.0206,0.1720,0.07,-0.00,0.15,43.557056,6.967249,-2.82,1,25.39
82591,1.12,-2.8,2.4,340.1,0.9845,-0.0254,0.0206,0.1720,0.07,-0.00,0.15,43.557056,6.967249,-2.82,1,25.39
82591,1.12,-2.8,2.4,340.1,0.9845,-0.0254,0.0206,0.1720,0.07,-0.00,0.15,43.557056,6.967249,-2.82,1,25.39
82604,1.12,-2.9,2.5,340.1,0.9843,-0.0266,0.0217,0.1726,0.15,-0.01,0.10,43.557056,6.967249,-2.82,1,25.39
82604,1.12,-2.9,2.5,340.1,0.9843,-0.0266,0.0217,0.1726,0.15,-0.01,0.10,43.557056,6.967249,-2.82,1,25.39
82604,1.12,-2.9,2.5,340.1,0.9843,-0.0266,0.0217,0.1726,0.15,-0.01,0.10,43.557056,6.967249,-2.82,1,25.39
82604,1.12,-2.9,2.5,340.1,0.9843,-0.0266,0.0217,0.1726,0.15,-0.01,0.10,43.557056,6.967249,-2.82,1,25.39
82604,1.12,-2.9,2.5,340.1,0.9843,-0.0266,0.0217,0.1726,0.15,-0.01,0.10,43.557056,6.967249,-2.82,1,25.39
82616,1.12,-2.9,2.5,340.0,0.9843,-0.0267,0.0214,0.1731,0.20,-0.11,0.05,43.557056,6.967249,-2.99,1,25.39
82616,1.12,-2.9,2.5,340.0,0.9843,-0.0267,0.0214,0.1731,0.20,-0.11,0.05,43.557056,6.967249,-2.99,1,25.39
82616,1.12,-2.9,2.5,340.0,0.9843,-0.0267,0.0214,0.1731,0.20,-0.11,0.05,43.557056,6.967249,-2.99,1,25.39
82616,1.12,-2.9,2.5,340.0,0.9843,-0.0267,0.0214,0.1731,0.20,-0.11,0.05,43.557056,6.967249,-2.99,1,25.39
82616,1.12,-2.9,2.5,340.0,0.9843,-0.0267,0.0214,0.1731,0.20,-0.11,0.05,43.557056,6.967249,-2.99,1,25.39
82629,1.12,-2.8,2.5,339.9,0.9841,-0.0266,0.0207,0.1737,0.25,-0.12,-0.03,43.557056,6.967249,-2.99,1,25.39
82629,1.12,-2.8,2.5,339.9,0.9841,-0.0266,0.0207,0.1737,0.25,-0.12,-0.03,43.557056,6.967249,-2.99,1,25.39
82629,1.12,-2.8,2.5,339.9,0.9841,-0.0266,0.0207,0.1737,0.25,-0.12,-0.03,43.557056,6.967249,-2.99,1,25.39
82629,1.12,-2.8,2.5,339.9,0.9841,-0.0266,0.0207,0.1737,0.25,-0.12,-0.03,43.557056,6.967249,-2.99,1,25.39
82629,1.12,-2.8,2.5,339.9,0.9841,-0.0266,0.0207,0.1737,0.25,-0.12,-0.03,43.557056,6.967249,-2.99,1,25.39
82642,1.12,-2.7,2.5,339.8,0.9841,-0.0266,0.0198,0.1743,0.18,-0.20,-0.01,43.557056,6.967249,-2.99,1,25.29
82642,1.12,-2.7,2.5,339.8,0.9841,-0.0266,0.0198,0.1743,0.18,-0.20,-0.01,43.557056,6.967249,-2.99,1,25.29
82642,1.12,-2.7,2.5,339.8,0.9841,-0.0266,0.0198,0.1743,0.18,-0.20,-0.01,43.557056,6.967249,-2.99,1,25.29
82642,1.12,-2.7,2.5,339.8,0.9841,-0.0266,0.0198,0.1743,0.18,-0.20,-0.01,43.557056,6.967249,-2.99,1,25.29
82642,1.12,-2.7,2.5,339.8,0.9841,-0.0266,0.0198,0.1743,0.18,-0.20,-0.01,43.557056,6.967249,-2.99,1,25.29
82655,1.12,-2.5,2.6,339.8,0.9840,-0.0270,0.0184,0.1748,-0.20,-0.22,0.07,43.557056,6.967249,-2.99,1,25.29
82655,1.12,-2.5,2.6,339.8,0.9840,-0.0270,0.0184,0.1748,-0.20,-0.22,0.07,43.557056,6.967249,-2.99,1,25.29
82655,1.12,-2.5,2.6,339.8,0.9840,-0.0270,0.0184,0.1748,-0.20,-0.22,0.07,43.557056,6.967249,-2.99,1,25.29
82655,1.12,-2.5,2.6,339.8,0.9840,-0.0270,0.0184,0.1748,-0.20,-0.22,0.07,43.557056,6.967249,-2.99,1,25.29
82655,1.12,-2.5,2.6,339.8,0.9840,-0.0270,0.0184,0.1748,-0.20,-0.22,0.07,43.557056,6.967249,-2.99,1,25.29
82667,1.12,-2.5,2.6,339.8,0.9840,-0.0272,0.0184,0.1748,-0.27,-0.19,0.07,43.557056,6.967249,-3.14,1,25.29
82667,1.12,-2.5,2.6,339.8,0.9840,-0.0272,0.0184,0.1748,-0.27,-0.19,0.07,43.557056,6.967249,-3.14,1,25.29
82667,1.12,-2.5,2.6,339.8,0.9840,-0.0272,0.0184,0.1748,-0.27,-0.19,0.07,43.557056,6.967249,-3.14,1,25.29
82667,1.12,-2.5,2.6,339.8,0.9840,-0.0272,0.0184,0.1748,-0.27,-0.19,0.07,43.557056,6.967249,-3.14,1,25.29
82667,1.12,-2.5,2.6,339.8,0.9840,-0.0272,0.0184,0.1748,-0.27,-0.19,0.07,43.557056,6.967249,-3.14,1,25.29
82680,1.12,-2.6,2.6,339.8,0.9840,-0.0275,0.0188,0.1748,-0.36,-0.20,0.01,43.557056,6.967249,-3.14,1,25.29
82680,1.12,-2.6,2.6,339.8,0.9840,-0.0275,0.0188,0.1748,-0.36,-0.20,0.01,43.557056,6.967249,-3.14,1,25.29
82680,1.12,-2.6,2.6,339.8,0.9840,-0.0275,0.0188,0.1748,-0.36,-0.20,0.01,43.557056,6.967249,-3.14,1,25.29
82680,1.12,-2.6,2.6,339.8,0.9840,-0.0275,0.0188,0.1748,-0.36,-0.20,0.01,43.557056,6.967249,-3.14,1,25.29
82680,1.12,-2.6,2.6,339.8,0.9840,-0.0275,0.0188,0.1748,-0.36,-0.20,0.01,43.557056,6.967249,-3.14,1,25.29
82693,1.12,-2.7,2.6,339.8,0.9840,-0.0277,0.0196,0.1748,-0.37,-0.17,-0.03,43.557056,6.967249,-3.14,1,25.29
82693,1.13,-2.7,2.6,339.8,0.9840,-0.0277,0.0196,0.1748,-0.37,-0.17,-0.03,43.557056,6.967249,-3.14,1,25.29
82693,1.13,-2.7,2.6,339.8,0.9840,-0.0277,0.0196,0.1748,-0.37,-0.17,-0.03,43.557056,6.967249,-3.14,1,25.29
82693,1.13,-2.7,2.6,339.8,0.9840,-0.0277,0.0196,0.1748,-0.37,-0.17,-0.03,43.557056,6.967249,-3.14,1,25.29
82693,1.14,-2.7,2.6,339.8,0.9840,-0.0277,0.0196,0.1748,-0.37,-0.17,-0.03,43.557056,6.967249,-3.14,1,25.29
82706,1.14,-2.9,2.6,339.8,0.9839,-0.0279,0.0214,0.1751,-0.28,0.00,-0.37,43.557056,6.967249,-3.14,1,25.29
82706,1.14,-2.9,2.6,339.8,0.9839,-0.0279,0.0214,0.1751,-0.28,0.00,-0.37,43.557056,6.967249,-3.14,1,25.29
82706,1.15,-2.9,2.6,339.8,0.9839,-0.0279,0.0214,0.1751,-0.28,0.00,-0.37,43.557056,6.967249,-3.14,1,25.29
82706,1.16,-2.9,2.6,339.8,0.9839,-0.0279,0.0214,0.1751,-0.28,0.00,-0.37,43.557056,6.967249,-3.14,1,25.29
82706,1.16,-2.9,2.6,339.8,0.9839,-0.0279,0.0214,0.1751,-0.28,0.00,-0.37,43.557056,6.967249,-3.14,1,25.29
82718,1.16,-3.0,2.6,339.7,0.9838,-0.0279,0.0221,0.1753,-0.22,0.02,-0.58,43.557056,6.967249,-3.31,1,25.29
82718,1.17,-3.0,2.6,339.7,0.9838,-0.0279,0.0221,0.1753,-0.22,0.02,-0.58,43.557056,6.967249,-3.31,1,25.29
82718,1.17,-3.0,2.6,339.7,0.9838,-0.0279,0.0221,0.1753,-0.22,0.02,-0.58,43.557056,6.967249,-3.31,1,25.29
82718,1.16,-3.0,2.6,339.7,0.9838,-0.0279,0.0221,0.1753,-0.22,0.02,-0.58,43.557056,6.967249,-3.31,1,25.29
82718,1.16,-3.0,2.6,339.7,0.9838,-0.0279,0.0221,0.1753,-0.22,0.02,-0.58,43.557056,6.967249,-3.31,1,25.29
82731,1.16,-3.0,2.6,339.6,0.9837,-0.0278,0.0225,0.1757,-0.18,0.00,-0.79,43.557056,6.967249,-3.31,1,25.29
82731,1.15,-3.0,2.6,339.6,0.9837,-0.0278,0.0225,0.1757,-0.18,0.00,-0.79,43.557056,6.967249,-3.31,1,25.29
82731,1.15,-3.0,2.6,339.6,0.9837,-0.0278,0.0225,0.1757,-0.18,0.00,-0.79,43.557056,6.967249,-3.31,1,25.29
82731,1.15,-3.0,2.6,339.6,0.9837,-0.0278,0.0225,0.1757,-0.18,0.00,-0.79,43.557056,6.967249,-3.31,1,25.29
82731,1.15,-3.0,2.6,339.6,0.9837,-0.0278,0.0225,0.1757,-0.18,0.00,-0.79,43.557056,6.967249,-3.31,1,25.29
82744,1.15,-3.0,2.6,339.6,0.9837,-0.0279,0.0224,0.1762,-0.12,0.15,-1.04,43.557056,6.967249,-3.31,1,25.39
82744,1.14,-3.0,2.6,339.6,0.9837,-0.0279,0.0224,0.1762,-0.12,0.15,-1.04,43.557056,6.967249,-3.31,1,25.39
82744,1.14,-3.0,2.6,339.6,0.9837,-0.0279,0.0224,0.1762,-0.12,0.15,-1.04,43.557056,6.967249,-3.31,1,25.39
82744,1.14,-3.0,2.6,339.6,0.9837,-0.0279,0.0224,0.1762,-0.12,0.15,-1.04,43.557056,6.967249,-3.31,1,25.39
82744,1.14,-3.0,2.6,339.6,0.9837,-0.0279,0.0224,0.1762,-0.12,0.15,-1.04,43.557056,6.967249,-3.31,1,25.39
82757,1.15,-2.8,2.6,339.5,0.9834,-0.0280,0.0207,0.1776,-0.05,0.17,-1.11,43.557056,6.967249,-3.31,1,25.39
82757,1.15,-2.8,2.6,339.5,0.9834,-0.0280,0.0207,0.1776,-0.05,0.17,-1.11,43.557056,6.967249,-3.31,1,25.39
82757,1.16,-2.8,2.6,339.5,0.9834,-0.0280,0.0207,0.1776,-0.05,0.17,-1.11,43.557056,6.967249,-3.31,1,25.39
82757,1.17,-2.8,2.6,339.5,0.9834,-0.0280,0.0207,0.1776,-0.05,0.17,-1.11,43.557056,6.967249,-3.31,1,25.39
82757,1.19,-2.8,2.6,339.5,0.9834,-0.0280,0.0207,0.1776,-0.05,0.17,-1.11,43.557056,6.967249,-3.31,1,25.39
82769,1.22,-2.7,2.7,339.3,0.9833,-0.0282,0.0195,0.1784,-0.00,0.11,-1.02,43.557056,6.967249,-3.47,1,25.39
82769,1.25,-2.7,2.7,339.3,0.9833,-0.0282,0.0195,0.1784,-0.00,0.11,-1.02,43.557056,6.967249,-3.47,1,25.39
82769,1.26,-2.7,2.7,339.3,0.9833,-0.0282,0.0195,0.1784,-0.00,0.11,-1.02,43.557056,6.967249,-3.47,1,25.39
82769,1.26,-2.7,2.7,339.3,0.9833,-0.0282,0.0195,0.1784,-0.00,0.11,-1.02,43.557056,6.967249,-3.47,1,25.39
82769,1.26,-2.7,2.7,339.3,0.9833,-0.0282,0.0195,0.1784,-0.00,0.11,-1.02,43.557056,6.967249,-3.47,1,25.39
82782,1.26,-2.6,2.8,339.3,0.9832,-0.0287,0.0186,0.1790,0.01,0.05,-0.61,43.557056,6.967249,-3.47,1,25.39
82782,1.26,-2.6,2.8,339.3,0.9832,-0.0287,0.0186,0.1790,0.01,0.05,-0.61,43.557056,6.967249,-3.47,1,25.39
82782,1.26,-2.6,2.8,339.3,0.9832,-0.0287,0.0186,0.1790,0.01,0.05,-0.61,43.557056,6.967249,-3.47,1,25.39
82782,1.27,-2.6,2.8,339.3,0.9832,-0.0287,0.0186,0.1790,0.01,0.05,-0.61,43.557056,6.967249,-3.47,1,25.39
82782,1.27,-2.6,2.8,339.3,0.9832,-0.0287,0.0186,0.1790,0.01,0.05,-0.61,43.557056,6.967249,-3.47,1,25.39
82795,1.28,-2.6,2.9,339.2,0.9830,-0.0294,0.0181,0.1796,0.07,0.11,-0.40,43.557056,6.967249,-3.47,1,25.39
82795,1.27,-2.6,2.9,339.2,0.9830,-0.0294,0.0181,0.1796,0.07,0.11,-0.40,43.557056,6.967249,-3.47,1,25.39
82795,1.28,-2.6,2.9,339.2,0.9830,-0.0294,0.0181,0.1796,0.07,0.11,-0.40,43.557056,6.967249,-3.47,1,25.39
82795,1.27,-2.6,2.9,339.2,0.9830,-0.0294,0.0181,0.1796,0.07,0.11,-0.40,43.557056,6.967249,-3.47,1,25.39
82795,1.27,-2.6,2.9,339.2,0.9830,-0.0294,0.0181,0.1796,0.07,0.11,-0.40,43.557056,6.967249,-3.47,1,25.39
82808,1.26,-2.6,3.0,339.1,0.9829,-0.0309,0.0182,0.1806,0.19,0.13,-0.19,43.557056,6.967249,-3.47,1,25.39
82808,1.26,-2.6,3.0,339.1,0.9829,-0.0309,0.0182,0.1806,0.19,0.13,-0.19,43.557056,6.967249,-3.47,1,25.39
82808,1.26,-2.6,3.0,339.1,0.9829,-0.0309,0.0182,0.1806,0.19,0.13,-0.19,43.557056,6.967249,-3.47,1,25.39
82808,1.25,-2.6,3.0,339.1,0.9829,-0.0309,0.0182,0.1806,0.19,0.13,-0.19,43.557056,6.967249,-3.47,1,25.39
82808,1.25,-2.6,3.0,339.1,0.9829,-0.0309,0.0182,0.1806,0.19,0.13,-0.19,43.557056,6.967249,-3.47,1,25.39
82820,1.25,-2.7,3.1,339.1,0.9828,-0.0316,0.0188,0.1808,0.20,0.07,-0.00,43.557056,6.967249,-3.63,1,25.39
82820,1.25,-2.7,3.1,339.1,0.9828,-0.0316,0.0188,0.1808,0.20,0.07,-0.00,43.557056,6.967249,-3.63,1,25.39
82820,1.25,-2.7,3.1,339.1,0.9828,-0.0316,0.0188,0.1808,0.20,0.07,-0.00,43.557056,6.967249,-3.63,1,25.39
82820,1.25,-2.7,3.1,339.1,0.9828,-0.0316,0.0188,0.1808,0.20,0.07,-0.00,43.557056,6.967249,-3.63,1,25.39
82820,1.25,-2.7,3.1,339.1,0.9828,-0.0316,0.0188,0.1808,0.20,0.07,-0.00,43.557056,6.967249,-3.63,1,25.39
82833,1.25,-2.8,3.1,339.1,0.9827,-0.0323,0.0194,0.1809,0.22,0.09,0.19,43.557056,6.967249,-3.63,1,25.39
82833,1.25,-2.8,3.1,339.1,0.9827,-0.0323,0.0194,0.1809,0.22,0.09,0.19,43.557056,6.967249,-3.63,1,25.39
82833,1.25,-2.8,3.1,339.1,0.9827,-0.0323,0.0194,0.1809,0.22,0.09,0.19,43.557056,6.967249,-3.63,1,25.39
82833,1.25,-2.8,3.1,339.1,0.9827,-0.0323,0.0194,0.1809,0.22,0.09,0.19,43.557056,6.967249,-3.63,1,25.39
82833,1.25,-2.8,3.1,339.1,0.9827,-0.0323,0.0194,0.1809,0.22,0.09,0.19,43.557056,6.967249,-3.63,1,25.39
82846,1.25,-2.8,3.3,339.0,0.9827,-0.0330,0.0197,0.1810,0.13,0.07,0.37,43.557056,6.967249,-3.63,1,25.29
82846,1.25,-2.8,3.3,339.0,0.9827,-0.0330,0.0197,0.1810,0.13,0.07,0.37,43.557056,6.967249,-3.63,1,25.29
82846,1.25,-2.8,3.3,339.0,0.9827,-0.0330,0.0197,0.1810,0.13,0.07,0.37,43.557056,6.967249,-3.63,1,25.29
82846,1.25,-2.8,3.3,339.0,0.9827,-0.0330,0.0197,0.1810,0.13,0.07,0.37,43.557056,6.967249,-3.63,1,25.29
82846,1.25,-2.8,3.3,339.0,0.9827,-0.0330,0.0197,0.1810,0.13,0.07,0.37,43.557056,6.967249,-3.63,1,25.29
82859,1.25,-2.9,3.5,339.1,0.9826,-0.0347,0.0197,0.1809,-0.11,0.05,0.83,43.557056,6.967249,-3.63,1,25.29
82859,1.25,-2.9,3.5,339.1,0.9826,-0.0347,0.0197,0.1809,-0.11,0.05,0.83,43.557056,6.967249,-3.63,1,25.29
82859,1.25,-2.9,3.5,339.1,0.9826,-0.0347,0.0197,0.1809,-0.11,0.05,0.83,43.557056,6.967249,-3.63,1,25.29
82859,1.25,-2.9,3.5,339.1,0.9826,-0.0347,0.0197,0.1809,-0.11,0.05,0.83,43.557056,6.967249,-3.63,1,25.29
82859,1.25,-2.9,3.5,339.1,0.9826,-0.0347,0.0197,0.1809,-0.11,0.05,0.83,43.557056,6.967249,-3.63,1,25.29
82871,1.25,-2.9,3.5,339.1,0.9826,-0.0347,0.0197,0.1809,-0.11,0.05,0.83,43.557056,6.967249,-3.77,1,25.29
82871,1.25,-2.9,3.5,339.1,0.9826,-0.0347,0.0197,0.1809,-0.11,0.05,0.83,43.557056,6.967249,-3.77,1,25.29
82871,1.24,-2.9,3.5,339.1,0.9826,-0.0347,0.0197,0.1809,-0.11,0.05,0.83,43.557056,6.967249,-3.77,1,25.29
82871,1.24,-2.9,3.5,339.1,0.9826,-0.0347,0.0197,0.1809,-0.11,0.05,0.83,43.557056,6.967249,-3.77,1,25.29
82871,1.25,-2.9,3.5,339.1,0.9826,-0.0347,0.0197,0.1809,-0.11,0.05,0.83,43.557056,6.967249,-3.77,1,25.29
82884,1.24,-2.8,3.6,339.0,0.9826,-0.0358,0.0189,0.1810,-0.19,0.07,0.75,43.557056,6.967249,-3.77,1,25.29
82884,1.25,-2.8,3.6,339.0,0.9826,-0.0358,0.0189,0.1810,-0.19,0.07,0.75,43.557056,6.967249,-3.77,1,25.29
82884,1.25,-2.8,3.6,339.0,0.9826,-0.0358,0.0189,0.1810,-0.19,0.07,0.75,43.557056,6.967249,-3.77,1,25.29
82884,1.25,-2.8,3.6,339.0,0.9826,-0.0358,0.0189,0.1810,-0.19,0.07,0.75,43.557056,6.967249,-3.77,1,25.29
82884,1.25,-2.8,3.6,339.0,0.9826,-0.0358,0.0189,0.1810,-0.19,0.07,0.75,43.557056,6.967249,-3.77,1,25.29
82897,1.25,-2.8,3.6,339.0,0.9826,-0.0360,0.0186,0.1810,-0.20,0.09,0.58,43.557056,6.967249,-3.77,1,25.29
82897,1.25,-2.8,3.6,339.0,0.9826,-0.0360,0.0186,0.1810,-0.20,0.09,0.58,43.557056,6.967249,-3.77,1,25.29
82897,1.25,-2.8,3.6,339.0,0.9826,-0.0360,0.0186,0.1810,-0.20,0.09,0.58,43.557056,6.967249,-3.77,1,25.29
82897,1.25,-2.8,3.6,339.0,0.9826,-0.0360,0.0186,0.1810,-0.20,0.09,0.58,43.557056,6.967249,-3.77,1,25.29
82897,1.25,-2.8,3.6,339.0,0.9826,-0.0360,0.0186,0.1810,-0.20,0.09,0.58,43.557056,6.967249,-3.77,1,25.29
82910,1.25,-2.8,3.6,339.0,0.9826,-0.0360,0.0183,0.1811,-0.20,0.05,0.27,43.557056,6.967249,-3.77,1,25.29
82910,1.25,-2.8,3.6,339.0,0.9826,-0.0360,0.0183,0.1811,-0.20,0.05,0.27,43.557056,6.967249,-3.77,1,25.29
82910,1.25,-2.8,3.6,339.0,0.9826,-0.0360,0.0183,0.1811,-0.20,0.05,0.27,43.557056,6.967249,-3.77,1,25.29
82910,1.24,-2.8,3.6,339.0,0.9826,-0.0360,0.0183,0.1811,-0.20,0.05,0.27,43.557056,6.967249,-3.77,1,25.29
82910,1.25,-2.8,3.6,339.0,0.9826,-0.0360,0.0183,0.1811,-0.20,0.05,0.27,43.557056,6.967249,-3.77,1,25.29
82922,1.24,-2.8,3.6,339.0,0.9826,-0.0359,0.0184,0.1812,-0.19,0.05,0.07,43.557056,6.967249,-3.92,1,25.29
82922,1.25,-2.8,3.6,339.0,0.9826,-0.0359,0.0184,0.1812,-0.19,0.05,0.07,43.557056,6.967249,-3.92,1,25.29
82922,1.25,-2.8,3.6,339.0,0.9826,-0.0359,0.0184,0.1812,-0.19,0.05,0.07,43.557056,6.967249,-3.92,1,25.29
82922,1.25,-2.8,3.6,339.0,0.9826,-0.0359,0.0184,0.1812,-0.19,0.05,0.07,43.557056,6.967249,-3.92,1,25.29
82922,1.25,-2.8,3.6,339.0,0.9826,-0.0359,0.0184,0.1812,-0.19,0.05,0.07,43.557056,6.967249,-3.92,1,25.29
82935,1.25,-2.8,3.6,339.0,0.9826,-0.0360,0.0188,0.1812,-0.23,0.01,-0.01,43.557056,6.967249,-3.92,1,25.29
82935,1.25,-2.8,3.6,339.0,0.9826,-0.0360,0.0188,0.1812,-0.23,0.01,-0.01,43.557056,6.967249,-3.92,1,25.29
82935,1.25,-2.8,3.6,339.0,0.9826,-0.0360,0.0188,0.1812,-0.23,0.01,-0.01,43.557056,6.967249,-3.92,1,25.29
82935,1.25,-2.8,3.6,339.0,0.9826,-0.0360,0.0188,0.1812,-0.23,0.01,-0.01,43.557056,6.967249,-3.92,1,25.29
82935,1.25,-2.8,3.6,339.0,0.9826,-0.0360,0.0188,0.1812,-0.23,0.01,-0.01,43.557056,6.967249,-3.92,1,25.29
82948,1.25,-2.8,3.6,339.0,0.9826,-0.0360,0.0192,0.1812,-0.25,0.10,-0.05,43.557056,6.967249,-3.92,1,25.39
82948,1.24,-2.8,3.6,339.0,0.9826,-0.0360,0.0192,0.1812,-0.25,0.10,-0.05,43.557056,6.967249,-3.92,1,25.39
82948,1.25,-2.8,3.6,339.0,0.9826,-0.0360,0.0192,0.1812,-0.25,0.10,-0.05,43.557056,6.967249,-3.92,1,25.39
82948,1.24,-2.8,3.6,339.0,0.9826,-0.0360,0.0192,0.1812,-0.25,0.10,-0.05,43.557056,6.967249,-3.92,1,25.39
82948,1.24,-2.8,3.6,339.0,0.9826,-0.0360,0.0192,0.1812,-0.25,0.10,-0.05,43.557056,6.967249,-3.92,1,25.39
82961,1.24,-3.0,3.6,339.0,0.9825,-0.0361,0.0203,0.1812,-0.22,0.11,-0.15,43.557056,6.967249,-3.92,1,25.39
82961,1.25,-3.0,3.6,339.0,0.9825,-0.0361,0.0203,0.1812,-0.22,0.11,-0.15,43.557056,6.967249,-3.92,1,25.39
82961,1.25,-3.0,3.6,339.0,0.9825,-0.0361,0.0203,0.1812,-0.22,0.11,-0.15,43.557056,6.967249,-3.92,1,25.39
82961,1.25,-3.0,3.6,339.0,0.9825,-0.0361,0.0203,0.1812,-0.22,0.11,-0.15,43.557056,6.967249,-3.92,1,25.39
82961,1.25,-3.0,3.6,339.0,0.9825,-0.0361,0.0203,0.1812,-0.22,0.11,-0.15,43.557056,6.967249,-3.92,1,25.39
82973,1.25,-3.0,3.6,339.0,0.9825,-0.0360,0.0208,0.1813,-0.12,0.19,-0.56,43.557056,6.967249,-4.06,1,25.39
82973,1.25,-3.0,3.6,339.0,0.9825,-0.0360,0.0208,0.1813,-0.12,0.19,-0.56,43.557056,6.967249,-4.06,1,25.39
82973,1.24,-3.0,3.6,339.0,0.9825,-0.0360,0.0208,0.1813,-0.12,0.19,-0.56,43.557056,6.967249,-4.06,1,25.39
82973,1.25,-3.0,3.6,339.0,0.9825,-0.0360,0.0208,0.1813,-0.12,0.19,-0.56,43.557056,6.967249,-4.06,1,25.39
82973,1.25,-3.0,3.6,339.0,0.9825,-0.0360,0.0208,0.1813,-0.12,0.19,-0.56,43.557056,6.967249,-4.06,1,25.39
82986,1.24,-3.1,3.5,339.0,0.9824,-0.0359,0.0213,0.1814,-0.07,0.19,-0.70,43.557056,6.967249,-4.06,1,25.39
82986,1.25,-3.1,3.5,339.0,0.9824,-0.0359,0.0213,0.1814,-0.07,0.19,-0.70,43.557056,6.967249,-4.06,1,25.39
82986,1.25,-3.1,3.5,339.0,0.9824,-0.0359,0.0213,0.1814,-0.07,0.19,-0.70,43.557056,6.967249,-4.06,1,25.39
82986,1.24,-3.1,3.5,339.0,0.9824,-0.0359,0.0213,0.1814,-0.07,0.19,-0.70,43.557056,6.967249,-4.06,1,25.39
82986,1.24,-3.1,3.5,339.0,0.9824,-0.0359,0.0213,0.1814,-0.07,0.19,-0.70,43.557056,6.967249,-4.06,1,25.39
82999,1.24,-3.1,3.5,339.0,0.9824,-0.0358,0.0216,0.1818,-0.01,0.19,-0.81,43.557056,6.967249,-4.06,1,25.39
82999,1.24,-3.1,3.5,339.0,0.9824,-0.0358,0.0216,0.1818,-0.01,0.19,-0.81,43.557056,6.967249,-4.06,1,25.39
82999,1.24,-3.1,3.5,339.0,0.9824,-0.0358,0.0216,0.1818,-0.01,0.19,-0.81,43.557056,6.967249,-4.06,1,25.39
82999,1.24,-3.1,3.5,339.0,0.9824,-0.0358,0.0216,0.1818,-0.01,0.19,-0.81,43.557056,6.967249,-4.06,1,25.39
82999,1.24,-3.1,3.5,339.0,0.9824,-0.0358,0.0216,0.1818,-0.01,0.19,-0.81,43.557056,6.967249,-4.06,1,25.39
83012,1.24,-3.1,3.5,339.0,0.9824,-0.0358,0.0212,0.1820,0.02,0.12,-0.79,43.557056,6.967249,-4.06,1,25.39
83012,1.23,-3.1,3.5,339.0,0.9824,-0.0358,0.0212,0.1820,0.02,0.12,-0.79,43.557056,6.967249,-4.06,1,25.39
83012,1.22,-3.1,3.5,339.0,0.9824,-0.0358,0.0212,0.1820,0.02,0.12,-0.79,43.557056,6.967249,-4.06,1,25.39
83012,1.21,-3.1,3.5,339.0,0.9824,-0.0358,0.0212,0.1820,0.02,0.12,-0.79,43.557056,6.967249,-4.06,1,25.39
83012,1.21,-3.1,3.5,339.0,0.9824,-0.0358,0.0212,0.1820,0.02,0.12,-0.79,43.557056,6.967249,-4.06,1,25.39
83024,1.21,-3.0,3.6,338.9,0.9823,-0.0360,0.0206,0.1823,-0.03,-0.00,-0.37,43.557056,6.967249,-4.20,1,25.39
83024,1.21,-3.0,3.6,338.9,0.9823,-0.0360,0.0206,0.1823,-0.03,-0.00,-0.37,43.557056,6.967249,-4.20,1,25.39
83024,1.21,-3.0,3.6,338.9,0.9823,-0.0360,0.0206,0.1823,-0.03,-0.00,-0.37,43.557056,6.967249,-4.20,1,25.39
83024,1.21,-3.0,3.6,338.9,0.9823,-0.0360,0.0206,0.1823,-0.03,-0.00,-0.37,43.557056,6.967249,-4.20,1,25.39
83024,1.21,-3.0,3.6,338.9,0.9823,-0.0360,0.0206,0.1823,-0.03,-0.00,-0.37,43.557056,6.967249,-4.20,1,25.39
83037,1.21,-3.0,3.6,338.9,0.9822,-0.0367,0.0198,0.1826,-0.07,0.02,-0.13,43.557056,6.967249,-4.20,1,25.39
83037,1.20,-3.0,3.6,338.9,0.9822,-0.0367,0.0198,0.1826,-0.07,0.02,-0.13,43.557056,6.967249,-4.20,1,25.39
83037,1.20,-3.0,3.6,338.9,0.9822,-0.0367,0.0198,0.1826,-0.07,0.02,-0.13,43.557056,6.967249,-4.20,1,25.39
83037,1.20,-3.0,3.6,338.9,0.9822,-0.0367,0.0198,0.1826,-0.07,0.02,-0.13,43.557056,6.967249,-4.20,1,25.39
83037,1.20,-3.0,3.6,338.9,0.9822,-0.0367,0.0198,0.1826,-0.07,0.02,-0.13,43.557056,6.967249,-4.20,1,25.39
83050,1.21,-3.0,3.6,338.8,0.9822,-0.0372,0.0200,0.1827,-0.09,0.02,0.10,43.557056,6.967249,-4.20,1,25.39
83050,1.23,-3.0,3.6,338.8,0.9822,-0.0372,0.0200,0.1827,-0.09,0.02,0.10,43.557056,6.967249,-4.20,1,25.39
83050,1.25,-3.0,3.6,338.8,0.9822,-0.0372,0.0200,0.1827,-0.09,0.02,0.10,43.557056,6.967249,-4.20,1,25.39
83050,1.25,-3.0,3.6,338.8,0.9822,-0.0372,0.0200,0.1827,-0.09,0.02,0.10,43.557056,6.967249,-4.20,1,25.39
83050,1.25,-3.0,3.6,338.8,0.9822,-0.0372,0.0200,0.1827,-0.09,0.02,0.10,43.557056,6.967249,-4.20,1,25.39
83063,1.25,-3.1,3.8,338.8,0.9822,-0.0377,0.0208,0.1827,-0.07,0.00,0.22,43.557056,6.967249,-4.20,1,25.50
83063,1.24,-3.1,3.8,338.8,0.9822,-0.0377,0.0208,0.1827,-0.07,0.00,0.22,43.557056,6.967249,-4.20,1,25.50
83063,1.24,-3.1,3.8,338.8,0.9822,-0.0377,0.0208,0.1827,-0.07,0.00,0.22,43.557056,6.967249,-4.20,1,25.50
83063,1.24,-3.1,3.8,338.8,0.9822,-0.0377,0.0208,0.1827,-0.07,0.00,0.22,43.557056,6.967249,-4.20,1,25.50
83063,1.24,-3.1,3.8,338.8,0.9822,-0.0377,0.0208,0.1827,-0.07,0.00,0.22,43.557056,6.967249,-4.20,1,25.50
83075,1.24,-3.2,3.8,338.8,0.9821,-0.0384,0.0229,0.1826,-0.01,-0.01,0.38,43.557056,6.967249,-4.33,1,25.50
83075,1.24,-3.2,3.8,338.8,0.9821,-0.0384,0.0229,0.1826,-0.01,-0.01,0.38,43.557056,6.967249,-4.33,1,25.50
83075,1.24,-3.2,3.8,338.8,0.9821,-0.0384,0.0229,0.1826,-0.01,-0.01,0.38,43.557056,6.967249,-4.33,1,25.50
83075,1.24,-3.2,3.8,338.8,0.9821,-0.0384,0.0229,0.1826,-0.01,-0.01,0.38,43.557056,6.967249,-4.33,1,25.50
83075,1.24,-3.2,3.8,338.8,0.9821,-0.0384,0.0229,0.1826,-0.01,-0.01,0.38,43.557056,6.967249,-4.33,1,25.50
83088,1.24,-3.4,3.8,338.8,0.9821,-0.0386,0.0238,0.1826,-0.02,0.01,0.38,43.557056,6.967249,-4.33,1,25.50
83088,1.24,-3.4,3.8,338.8,0.9821,-0.0386,0.0238,0.1826,-0.02,0.01,0.38,43.557056,6.967249,-4.33,1,25.50
83088,1.24,-3.4,3.8,338.8,0.9821,-0.0386,0.0238,0.1826,-0.02,0.01,0.38,43.557056,6.967249,-4.33,1,25.50
83088,1.24,-3.4,3.8,338.8,0.9821,-0.0386,0.0238,0.1826,-0.02,0.01,0.38,43.557056,6.967249,-4.33,1,25.50
83088,1.24,-3.4,3.8,338.8,0.9821,-0.0386,0.0238,0.1826,-0.02,0.01,0.38,43.557056,6.967249,-4.33,1,25.50
83101,1.24,-3.5,3.8,338.8,0.9821,-0.0388,0.0245,0.1826,0.00,0.03,0.22,43.557056,6.967249,-4.33,1,25.50
83101,1.24,-3.5,3.8,338.8,0.9821,-0.0388,0.0245,0.1826,0.00,0.03,0.22,43.557056,6.967249,-4.33,1,25.50
83101,1.24,-3.5,3.8,338.8,0.9821,-0.0388,0.0245,0.1826,0.00,0.03,0.22,43.557056,6.967249,-4.33,1,25.50
83101,1.24,-3.5,3.8,338.8,0.9821,-0.0388,0.0245,0.1826,0.00,0.03,0.22,43.557056,6.967249,-4.33,1,25.50
83101,1.24,-3.5,3.8,338.8,0.9821,-0.0388,0.0245,0.1826,0.00,0.03,0.22,43.557056,6.967249,-4.33,1,25.50
83114,1.24,-3.5,3.8,338.8,0.9820,-0.0387,0.0248,0.1828,-0.01,0.05,-0.15,43.557056,6.967249,-4.33,1,25.50
83114,1.24,-3.5,3.8,338.8,0.9820,-0.0387,0.0248,0.1828,-0.01,0.05,-0.15,43.557056,6.967249,-4.33,1,25.50
83114,1.24,-3.5,3.8,338.8,0.9820,-0.0387,0.0248,0.1828,-0.01,0.05,-0.15,43.557056,6.967249,-4.33,1,25.50
83114,1.24,-3.5,3.8,338.8,0.9820,-0.0387,0.0248,0.1828,-0.01,0.05,-0.15,43.557056,6.967249,-4.33,1,25.50
83114,1.24,-3.5,3.8,338.8,0.9820,-0.0387,0.0248,0.1828,-0.01,0.05,-0.15,43.557056,6.967249,-4.33,1,25.50
83126,1.24,-3.5,3.7,338.8,0.9819,-0.0382,0.0247,0.1832,-0.00,0.01,-0.28,43.557056,6.967249,-4.44,1,25.50
83126,1.23,-3.5,3.7,338.8,0.9819,-0.0382,0.0247,0.1832,-0.00,0.01,-0.28,43.557056,6.967249,-4.44,1,25.50
83126,1.24,-3.5,3.7,338.8,0.9819,-0.0382,0.0247,0.1832,-0.00,0.01,-0.28,43.557056,6.967249,-4.44,1,25.50
83126,1.23,-3.5,3.7,338.8,0.9819,-0.0382,0.0247,0.1832,-0.00,0.01,-0.28,43.557056,6.967249,-4.44,1,25.50
83126,1.24,-3.5,3.7,338.8,0.9819,-0.0382,0.0247,0.1832,-0.00,0.01,-0.28,43.557056,6.967249,-4.44,1,25.50
83139,1.23,-3.5,3.7,338.8,0.9819,-0.0380,0.0245,0.1834,-0.00,0.05,-0.28,43.557056,6.967249,-4.44,1,25.50
83139,1.23,-3.5,3.7,338.8,0.9819,-0.0380,0.0245,0.1834,-0.00,0.05,-0.28,43.557056,6.967249,-4.44,1,25.50
83139,1.23,-3.5,3.7,338.8,0.9819,-0.0380,0.0245,0.1834,-0.00,0.05,-0.28,43.557056,6.967249,-4.44,1,25.50
83139,1.23,-3.5,3.7,338.8,0.9819,-0.0380,0.0245,0.1834,-0.00,0.05,-0.28,43.557056,6.967249,-4.44,1,25.50
83139,1.24,-3.5,3.7,338.8,0.9819,-0.0380,0.0245,0.1834,-0.00,0.05,-0.28,43.557056,6.967249,-4.44,1,25.50
83152,1.24,-3.5,3.7,338.7,0.9819,-0.0380,0.0244,0.1837,0.00,0.10,-0.25,43.557056,6.967249,-4.44,1,25.50
83152,1.25,-3.5,3.7,338.7,0.9819,-0.0380,0.0244,0.1837,0.00,0.10,-0.25,43.557056,6.967249,-4.44,1,25.50
83152,1.25,-3.5,3.7,338.7,0.9819,-0.0380,0.0244,0.1837,0.00,0.10,-0.25,43.557056,6.967249,-4.44,1,25.50
83152,1.25,-3.5,3.7,338.7,0.9819,-0.0380,0.0244,0.1837,0.00,0.10,-0.25,43.557056,6.967249,-4.44,1,25.50
83152,1.25,-3.5,3.7,338.7,0.9819,-0.0380,0.0244,0.1837,0.00,0.10,-0.25,43.557056,6.967249,-4.44,1,25.50
83165,1.25,-3.6,3.7,338.7,0.9818,-0.0383,0.0255,0.1838,0.02,0.03,-0.13,43.557056,6.967249,-4.44,1,25.50
83165,1.25,-3.6,3.7,338.7,0.9818,-0.0383,0.0255,0.1838,0.02,0.03,-0.13,43.557056,6.967249,-4.44,1,25.50
83165,1.25,-3.6,3.7,338.7,0.9818,-0.0383,0.0255,0.1838,0.02,0.03,-0.13,43.557056,6.967249,-4.44,1,25.50
83165,1.25,-3.6,3.7,338.7,0.9818,-0.0383,0.0255,0.1838,0.02,0.03,-0.13,43.557056,6.967249,-4.44,1,25.50
83165,1.25,-3.6,3.7,338.7,0.9818,-0.0383,0.0255,0.1838,0.02,0.03,-0.13,43.557056,6.967249,-4.44,1,25.50
83177,1.25,-3.7,3.7,338.7,0.9818,-0.0384,0.0261,0.1838,0.05,0.05,-0.12,43.557056,6.967249,-4.55,1,25.50
83177,1.25,-3.7,3.7,338.7,0.9818,-0.0384,0.0261,0.1838,0.05,0.05,-0.12,43.557056,6.967249,-4.55,1,25.50
83177,1.25,-3.7,3.7,338.7,0.9818,-0.0384,0.0261,0.1838,0.05,0.05,-0.12,43.557056,6.967249,-4.55,1,25.50
83177,1.25,-3.7,3.7,338.7,0.9818,-0.0384,0.0261,0.1838,0.05,0.05,-0.12,43.557056,6.967249,-4.55,1,25.50
83177,1.25,-3.7,3.7,338.7,0.9818,-0.0384,0.0261,0.1838,0.05,0.05,-0.12,43.557056,6.967249,-4.55,1,25.50
83190,1.25,-3.8,3.7,338.7,0.9818,-0.0386,0.0270,0.1838,0.05,0.02,-0.11,43.557056,6.967249,-4.55,1,25.50
83190,1.25,-3.8,3.7,338.7,0.9818,-0.0386,0.0270,0.1838,0.05,0.02,-0.11,43.557056,6.967249,-4.55,1,25.50
83190,1.25,-3.8,3.7,338.7,0.9818,-0.0386,0.0270,0.1838,0.05,0.02,-0.11,43.557056,6.967249,-4.55,1,25.50
83190,1.25,-3.8,3.7,338.7,0.9818,-0.0386,0.0270,0.1838,0.05,0.02,-0.11,43.557056,6.967249,-4.55,1,25.50
83190,1.25,-3.8,3.7,338.7,0.9818,-0.0386,0.0270,0.1838,0.05,0.02,-0.11,43.557056,6.967249,-4.55,1,25.50
83203,1.25,-3.9,3.7,338.7,0.9818,-0.0387,0.0278,0.1838,0.07,-0.03,0.05,43.557056,6.967249,-4.55,1,25.50
83203,1.25,-3.9,3.7,338.7,0.9818,-0.0387,0.0278,0.1838,0.07,-0.03,0.05,43.557056,6.967249,-4.55,1,25.50
83203,1.25,-3.9,3.7,338.7,0.9818,-0.0387,0.0278,0.1838,0.07,-0.03,0.05,43.557056,6.967249,-4.55,1,25.50
83203,1.25,-3.9,3.7,338.7,0.9818,-0.0387,0.0278,0.1838,0.07,-0.03,0.05,43.557056,6.967249,-4.55,1,25.50
83203,1.25,-3.9,3.7,338.7,0.9818,-0.0387,0.0278,0.1838,0.07,-0.03,0.05,43.557056,6.967249,-4.55,1,25.50
83216,1.25,-4.0,3.7,338.7,0.9817,-0.0390,0.0289,0.1838,0.07,0.00,0.07,43.557056,6.967249,-4.55,1,25.50
83216,1.25,-4.0,3.7,338.7,0.9817,-0.0390,0.0289,0.1838,0.07,0.00,0.07,43.557056,6.967249,-4.55,1,25.50
83216,1.25,-4.0,3.7,338.7,0.9817,-0.0390,0.0289,0.1838,0.07,0.00,0.07,43.557056,6.967249,-4.55,1,25.50
83216,1.25,-4.0,3.7,338.7,0.9817,-0.0390,0.0289,0.1838,0.07,0.00,0.07,43.557056,6.967249,-4.55,1,25.50
83216,1.25,-4.0,3.7,338.7,0.9817,-0.0390,0.0289,0.1838,0.07,0.00,0.07,43.557056,6.967249,-4.55,1,25.50
83228,1.25,-4.0,3.7,338.7,0.9817,-0.0390,0.0292,0.1838,0.05,-0.03,-0.03,43.557056,6.967249,-4.66,1,25.50
83228,1.25,-4.0,3.7,338.7,0.9817,-0.0390,0.0292,0.1838,0.05,-0.03,-0.03,43.557056,6.967249,-4.66,1,25.50
83228,1.25,-4.0,3.7,338.7,0.9817,-0.0390,0.0292,0.1838,0.05,-0.03,-0.03,43.557056,6.967249,-4.66,1,25.50
83228,1.25,-4.0,3.7,338.7,0.9817,-0.0390,0.0292,0.1838,0.05,-0.03,-0.03,43.557056,6.967249,-4.66,1,25.50
83228,1.25,-4.0,3.7,338.7,0.9817,-0.0390,0.0292,0.1838,0.05,-0.03,-0.03,43.557056,6.967249,-4.66,1,25.50
83241,1.25,-4.1,3.7,338.7,0.9817,-0.0388,0.0294,0.1838,0.02,-0.05,-0.20,43.557056,6.967249,-4.66,1,25.50
83241,1.26,-4.1,3.7,338.7,0.9817,-0.0388,0.0294,0.1838,0.02,-0.05,-0.20,43.557056,6.967249,-4.66,1,25.50
83241,1.26,-4.1,3.7,338.7,0.9817,-0.0388,0.0294,0.1838,0.02,-0.05,-0.20,43.557056,6.967249,-4.66,1,25.50
83241,1.26,-4.1,3.7,338.7,0.9817,-0.0388,0.0294,0.1838,0.02,-0.05,-0.20,43.557056,6.967249,-4.66,1,25.50
83241,1.26,-4.1,3.7,338.7,0.9817,-0.0388,0.0294,0.1838,0.02,-0.05,-0.20,43.557056,6.967249,-4.66,1,25.50
83254,1.26,-4.1,3.6,338.7,0.9817,-0.0385,0.0294,0.1840,0.00,-0.09,-0.30,43.557056,6.967249,-4.66,1,25.50
83254,1.26,-4.1,3.6,338.7,0.9817,-0.0385,0.0294,0.1840,0.00,-0.09,-0.30,43.557056,6.967249,-4.66,1,25.50
83254,1.26,-4.1,3.6,338.7,0.9817,-0.0385,0.0294,0.1840,0.00,-0.09,-0.30,43.557056,6.967249,-4.66,1,25.50
83254,1.26,-4.1,3.6,338.7,0.9817,-0.0385,0.0294,0.1840,0.00,-0.09,-0.30,43.557056,6.967249,-4.66,1,25.50
83254,1.26,-4.1,3.6,338.7,0.9817,-0.0385,0.0294,0.1840,0.00,-0.09,-0.30,43.557056,6.967249,-4.66,1,25.50
83267,1.26,-4.1,3.6,338.7,0.9816,-0.0382,0.0300,0.1841,-0.00,-0.02,-0.50,43.557056,6.967249,-4.66,1,25.50
83267,1.26,-4.1,3.6,338.7,0.9816,-0.0382,0.0300,0.1841,-0.00,-0.02,-0.50,43.557056,6.967249,-4.66,1,25.50
83267,1.26,-4.1,3.6,338.7,0.9816,-0.0382,0.0300,0.1841,-0.00,-0.02,-0.50,43.557056,6.967249,-4.66,1,25.50
83267,1.25,-4.1,3.6,338.7,0.9816,-0.0382,0.0300,0.1841,-0.00,-0.02,-0.50,43.557056,6.967249,-4.66,1,25.50
83267,1.25,-4.1,3.6,338.7,0.9816,-0.0382,0.0300,0.1841,-0.00,-0.02,-0.50,43.557056,6.967249,-4.66,1,25.50
83279,1.25,-4.2,3.6,338.7,0.9816,-0.0382,0.0305,0.1841,0.00,-0.03,-0.54,43.557056,6.967249,-4.77,1,25.50
83279,1.25,-4.2,3.6,338.7,0.9816,-0.0382,0.0305,0.1841,0.00,-0.03,-0.54,43.557056,6.967249,-4.77,1,25.50
83279,1.25,-4.2,3.6,338.7,0.9816,-0.0382,0.0305,0.1841,0.00,-0.03,-0.54,43.557056,6.967249,-4.77,1,25.50
83279,1.25,-4.2,3.6,338.7,0.9816,-0.0382,0.0305,0.1841,0.00,-0.03,-0.54,43.557056,6.967249,-4.77,1,25.50
83279,1.25,-4.2,3.6,338.7,0.9816,-0.0382,0.0305,0.1841,0.00,-0.03,-0.54,43.557056,6.967249,-4.77,1,25.50
83292,1.25,-4.3,3.6,338.7,0.9816,-0.0385,0.0313,0.1841,0.05,-0.15,-0.49,43.557056,6.967249,-4.77,1,25.50
83292,1.25,-4.3,3.6,338.7,0.9816,-0.0385,0.0313,0.1841,0.05,-0.15,-0.49,43.557056,6.967249,-4.77,1,25.50
83292,1.25,-4.3,3.6,338.7,0.9816,-0.0385,0.0313,0.1841,0.05,-0.15,-0.49,43.557056,6.967249,-4.77,1,25.50
83292,1.25,-4.3,3.6,338.7,0.9816,-0.0385,0.0313,0.1841,0.05,-0.15,-0.49,43.557056,6.967249,-4.77,1,25.50
83292,1.25,-4.3,3.6,338.7,0.9816,-0.0385,0.0313,0.1841,0.05,-0.15,-0.49,43.557056,6.967249,-4.77,1,25.50
83305,1.25,-4.4,3.6,338.7,0.9816,-0.0389,0.0322,0.1840,0.11,-0.12,-0.30,43.557056,6.967249,-4.77,1,25.50
83305,1.25,-4.4,3.6,338.7,0.9816,-0.0389,0.0322,0.1840,0.11,-0.12,-0.30,43.557056,6.967249,-4.77,1,25.50
83305,1.25,-4.4,3.6,338.7,0.9816,-0.0389,0.0322,0.1840,0.11,-0.12,-0.30,43.557056,6.967249,-4.77,1,25.50
83305,1.25,-4.4,3.6,338.7,0.9816,-0.0389,0.0322,0.1840,0.11,-0.12,-0.30,43.557056,6.967249,-4.77,1,25.50
83305,1.25,-4.4,3.6,338.7,0.9816,-0.0389,0.0322,0.1840,0.11,-0.12,-0.30,43.557056,6.967249,-4.77,1,25.50
83318,1.25,-4.6,3.7,338.7,0.9815,-0.0397,0.0343,0.1838,0.10,-0.11,0.18,43.557056,6.967249,-4.77,1,25.50
83318,1.25,-4.6,3.7,338.7,0.9815,-0.0397,0.0343,0.1838,0.10,-0.11,0.18,43.557056,6.967249,-4.77,1,25.50
83318,1.25,-4.6,3.7,338.7,0.9815,-0.0397,0.0343,0.1838,0.10,-0.11,0.18,43.557056,6.967249,-4.77,1,25.50
83318,1.25,-4.6,3.7,338.7,0.9815,-0.0397,0.0343,0.1838,0.10,-0.11,0.18,43.557056,6.967249,-4.77,1,25.50
83318,1.25,-4.6,3.7,338.7,0.9815,-0.0397,0.0343,0.1838,0.10,-0.11,0.18,43.557056,6.967249,-4.77,1,25.50
83330,1.25,-4.8,3.7,338.7,0.9815,-0.0401,0.0355,0.1837,0.10,-0.12,0.25,43.557056,6.967249,-4.86,1,25.50
83330,1.25,-4.8,3.7,338.7,0.9815,-0.0401,0.0355,0.1837,0.10,-0.12,0.25,43.557056,6.967249,-4.86,1,25.50
83330,1.25,-4.8,3.7,338.7,0.9815,-0.0401,0.0355,0.1837,0.10,-0.12,0.25,43.557056,6.967249,-4.86,1,25.50
83330,1.26,-4.8,3.7,338.7,0.9815,-0.0401,0.0355,0.1837,0.10,-0.12,0.25,43.557056,6.967249,-4.86,1,25.50
83330,1.26,-4.8,3.7,338.7,0.9815,-0.0401,0.0355,0.1837,0.10,-0.12,0.25,43.557056,6.967249,-4.86,1,25.50
83343,1.26,-4.9,3.7,338.7,0.9815,-0.0400,0.0364,0.1837,0.07,-0.10,0.28,43.557056,6.967249,-4.86,1,25.50
83343,1.26,-4.9,3.7,338.7,0.9815,-0.0400,0.0364,0.1837,0.07,-0.10,0.28,43.557056,6.967249,-4.86,1,25.50
83343,1.26,-4.9,3.7,338.7,0.9815,-0.0400,0.0364,0.1837,0.07,-0.10,0.28,43.557056,6.967249,-4.86,1,25.50
83343,1.26,-4.9,3.7,338.7,0.9815,-0.0400,0.0364,0.1837,0.07,-0.10,0.28,43.557056,6.967249,-4.86,1,25.50
83343,1.26,-4.9,3.7,338.7,0.9815,-0.0400,0.0364,0.1837,0.07,-0.10,0.28,43.557056,6.967249,-4.86,1,25.50
83356,1.26,-5.0,3.6,338.7,0.9814,-0.0399,0.0371,0.1837,0.01,-0.11,0.20,43.557056,6.967249,-4.86,1,25.50
83356,1.26,-5.0,3.6,338.7,0.9814,-0.0399,0.0371,0.1837,0.01,-0.11,0.20,43.557056,6.967249,-4.86,1,25.50
83356,1.26,-5.0,3.6,338.7,0.9814,-0.0399,0.0371,0.1837,0.01,-0.11,0.20,43.557056,6.967249,-4.86,1,25.50
83356,1.26,-5.0,3.6,338.7,0.9814,-0.0399,0.0371,0.1837,0.01,-0.11,0.20,43.557056,6.967249,-4.86,1,25.50
83356,1.26,-5.0,3.6,338.7,0.9814,-0.0399,0.0371,0.1837,0.01,-0.11,0.20,43.557056,6.967249,-4.86,1,25.50
83369,1.26,-5.0,3.6,338.6,0.9813,-0.0395,0.0375,0.1841,0.10,-0.11,0.00,43.557056,6.967249,-4.86,1,25.60
83369,1.26,-5.0,3.6,338.6,0.9813,-0.0395,0.0375,0.1841,0.10,-0.11,0.00,43.557056,6.967249,-4.86,1,25.60
83369,1.26,-5.0,3.6,338.6,0.9813,-0.0395,0.0375,0.1841,0.10,-0.11,0.00,43.557056,6.967249,-4.86,1,25.60
83369,1.26,-5.0,3.6,338.6,0.9813,-0.0395,0.0375,0.1841,0.10,-0.11,0.00,43.557056,6.967249,-4.86,1,25.60
83369,1.26,-5.0,3.6,338.6,0.9813,-0.0395,0.0375,0.1841,0.10,-0.11,0.00,43.557056,6.967249,-4.86,1,25.60
83381,1.26,-5.0,3.6,338.6,0.9813,-0.0391,0.0370,0.1845,0.12,-0.13,-0.03,43.557056,6.967249,-4.96,1,25.60
83381,1.26,-5.0,3.6,338.6,0.9813,-0.0391,0.0370,0.1845,0.12,-0.13,-0.03,43.557056,6.967249,-4.96,1,25.60
83381,1.26,-5.0,3.6,338.6,0.9813,-0.0391,0.0370,0.1845,0.12,-0.13,-0.03,43.557056,6.967249,-4.96,1,25.60
83381,1.26,-5.0,3.6,338.6,0.9813,-0.0391,0.0370,0.1845,0.12,-0.13,-0.03,43.557056,6.967249,-4.96,1,25.60
83381,1.26,-5.0,3.6,338.6,0.9813,-0.0391,0.0370,0.1845,0.12,-0.13,-0.03,43.557056,6.967249,-4.96,1,25.60
83394,1.26,-4.9,3.5,338.6,0.9813,-0.0388,0.0366,0.1848,0.15,-0.10,-0.09,43.557056,6.967249,-4.96,1,25.60
83394,1.26,-4.9,3.5,338.6,0.9813,-0.0388,0.0366,0.1848,0.15,-0.10,-0.09,43.557056,6.967249,-4.96,1,25.60
83394,1.25,-4.9,3.5,338.6,0.9813,-0.0388,0.0366,0.1848,0.15,-0.10,-0.09,43.557056,6.967249,-4.96,1,25.60
83394,1.25,-4.9,3.5,338.6,0.9813,-0.0388,0.0366,0.1848,0.15,-0.10,-0.09,43.557056,6.967249,-4.96,1,25.60
83394,1.25,-4.9,3.5,338.6,0.9813,-0.0388,0.0366,0.1848,0.15,-0.10,-0.09,43.557056,6.967249,-4.96,1,25.60
83407,1.25,-4.8,3.5,338.6,0.9812,-0.0384,0.0363,0.1851,0.15,-0.07,-0.22,43.557056,6.967249,-4.96,1,25.60
83407,1.26,-4.8,3.5,338.6,0.9812,-0.0384,0.0363,0.1851,0.15,-0.07,-0.22,43.557056,6.967249,-4.96,1,25.60
83407,1.25,-4.8,3.5,338.6,0.9812,-0.0384,0.0363,0.1851,0.15,-0.07,-0.22,43.557056,6.967249,-4.96,1,25.60
83407,1.25,-4.8,3.5,338.6,0.9812,-0.0384,0.0363,0.1851,0.15,-0.07,-0.22,43.557056,6.967249,-4.96,1,25.60
83407,1.26,-4.8,3.5,338.6,0.9812,-0.0384,0.0363,0.1851,0.15,-0.07,-0.22,43.557056,6.967249,-4.96,1,25.60
83420,1.26,-4.8,3.5,338.5,0.9812,-0.0380,0.0363,0.1854,0.13,-0.11,-0.25,43.557056,6.967249,-4.96,1,25.60
83420,1.26,-4.8,3.5,338.5,0.9812,-0.0380,0.0363,0.1854,0.13,-0.11,-0.25,43.557056,6.967249,-4.96,1,25.60
83420,1.26,-4.8,3.5,338.5,0.9812,-0.0380,0.0363,0.1854,0.13,-0.11,-0.25,43.557056,6.967249,-4.96,1,25.60
83420,1.26,-4.8,3.5,338.5,0.9812,-0.0380,0.0363,0.1854,0.13,-0.11,-0.25,43.557056,6.967249,-4.96,1,25.60
83420,1.26,-4.8,3.5,338.5,0.9812,-0.0380,0.0363,0.1854,0.13,-0.11,-0.25,43.557056,6.967249,-4.96,1,25.60
83432,1.26,-4.9,3.4,338.5,0.9812,-0.0376,0.0369,0.1857,0.22,-0.03,-0.33,43.557056,6.967249,-5.05,1,25.60
83432,1.26,-4.9,3.4,338.5,0.9812,-0.0376,0.0369,0.1857,0.22,-0.03,-0.33,43.557056,6.967249,-5.05,1,25.60
83432,1.26,-4.9,3.4,338.5,0.9812,-0.0376,0.0369,0.1857,0.22,-0.03,-0.33,43.557056,6.967249,-5.05,1,25.60
83432,1.26,-4.9,3.4,338.5,0.9812,-0.0376,0.0369,0.1857,0.22,-0.03,-0.33,43.557056,6.967249,-5.05,1,25.60
83432,1.26,-4.9,3.4,338.5,0.9812,-0.0376,0.0369,0.1857,0.22,-0.03,-0.33,43.557056,6.967249,-5.05,1,25.60
83445,1.26,-5.0,3.3,338.5,0.9811,-0.0375,0.0374,0.1858,0.19,-0.02,-0.25,43.557056,6.967249,-5.05,1,25.60
83445,1.27,-5.0,3.3,338.5,0.9811,-0.0375,0.0374,0.1858,0.19,-0.02,-0.25,43.557056,6.967249,-5.05,1,25.60
83445,1.27,-5.0,3.3,338.5,0.9811,-0.0375,0.0374,0.1858,0.19,-0.02,-0.25,43.557056,6.967249,-5.05,1,25.60
83445,1.27,-5.0,3.3,338.5,0.9811,-0.0375,0.0374,0.1858,0.19,-0.02,-0.25,43.557056,6.967249,-5.05,1,25.60
83445,1.26,-5.0,3.3,338.5,0.9811,-0.0375,0.0374,0.1858,0.19,-0.02,-0.25,43.557056,6.967249,-5.05,1,25.60
83458,1.26,-5.0,3.3,338.5,0.9811,-0.0374,0.0379,0.1859,0.20,0.00,-0.22,43.557056,6.967249,-5.05,1,25.60
83458,1.27,-5.0,3.3,338.5,0.9811,-0.0374,0.0379,0.1859,0.20,0.00,-0.22,43.557056,6.967249,-5.05,1,25.60
83458,1.26,-5.0,3.3,338.5,0.9811,-0.0374,0.0379,0.1859,0.20,0.00,-0.22,43.557056,6.967249,-5.05,1,25.60
83458,1.26,-5.0,3.3,338.5,0.9811,-0.0374,0.0379,0.1859,0.20,0.00,-0.22,43.557056,6.967249,-5.05,1,25.60
83458,1.26,-5.0,3.3,338.5,0.9811,-0.0374,0.0379,0.1859,0.20,0.00,-0.22,43.557056,6.967249,-5.05,1,25.60
83471,1.26,-5.0,3.3,338.5,0.9810,-0.0368,0.0380,0.1861,0.20,0.00,-0.30,43.557056,6.967249,-5.05,1,25.60
83471,1.27,-5.0,3.3,338.5,0.9810,-0.0368,0.0380,0.1861,0.20,0.00,-0.30,43.557056,6.967249,-5.05,1,25.60
83471,1.27,-5.0,3.3,338.5,0.9810,-0.0368,0.0380,0.1861,0.20,0.00,-0.30,43.557056,6.967249,-5.05,1,25.60
83471,1.27,-5.0,3.3,338.5,0.9810,-0.0368,0.0380,0.1861,0.20,0.00,-0.30,43.557056,6.967249,-5.05,1,25.60
83471,1.27,-5.0,3.3,338.5,0.9810,-0.0368,0.0380,0.1861,0.20,0.00,-0.30,43.557056,6.967249,-5.05,1,25.60
83483,1.27,-5.0,3.3,338.4,0.9810,-0.0366,0.0377,0.1863,0.20,0.00,-0.37,43.557056,6.967249,-5.14,1,25.60
83483,1.27,-5.0,3.3,338.4,0.9810,-0.0366,0.0377,0.1863,0.20,0.00,-0.37,43.557056,6.967249,-5.14,1,25.60
83483,1.27,-5.0,3.3,338.4,0.9810,-0.0366,0.0377,0.1863,0.20,0.00,-0.37,43.557056,6.967249,-5.14,1,25.60
83483,1.27,-5.0,3.3,338.4,0.9810,-0.0366,0.0377,0.1863,0.20,0.00,-0.37,43.557056,6.967249,-5.14,1,25.60
83483,1.27,-5.0,3.3,338.4,0.9810,-0.0366,0.0377,0.1863,0.20,0.00,-0.37,43.557056,6.967249,-5.14,1,25.60
83496,1.27,-4.9,3.3,338.4,0.9810,-0.0364,0.0371,0.1865,0.20,0.01,-0.35,43.557056,6.967249,-5.14,1,25.60
83496,1.27,-4.9,3.3,338.4,0.9810,-0.0364,0.0371,0.1865,0.20,0.01,-0.35,43.557056,6.967249,-5.14,1,25.60
83496,1.27,-4.9,3.3,338.4,0.9810,-0.0364,0.0371,0.1865,0.20,0.01,-0.35,43.557056,6.967249,-5.14,1,25.60
83496,1.27,-4.9,3.3,338.4,0.9810,-0.0364,0.0371,0.1865,0.20,0.01,-0.35,43.557056,6.967249,-5.14,1,25.60
83496,1.27,-4.9,3.3,338.4,0.9810,-0.0364,0.0371,0.1865,0.20,0.01,-0.35,43.557056,6.967249,-5.14,1,25.60
83509,1.27,-4.8,3.3,338.4,0.9810,-0.0363,0.0363,0.1867,0.20,0.01,-0.35,43.557056,6.967249,-5.14,1,25.60
83509,1.27,-4.8,3.3,338.4,0.9810,-0.0363,0.0363,0.1867,0.20,0.01,-0.35,43.557056,6.967249,-5.14,1,25.60
83509,1.27,-4.8,3.3,338.4,0.9810,-0.0363,0.0363,0.1867,0.20,0.01,-0.35,43.557056,6.967249,-5.14,1,25.60
83509,1.27,-4.8,3.3,338.4,0.9810,-0.0363,0.0363,0.1867,0.20,0.01,-0.35,43.557056,6.967249,-5.14,1,25.60
83509,1.27,-4.8,3.3,338.4,0.9810,-0.0363,0.0363,0.1867,0.20,0.01,-0.35,43.557056,6.967249,-5.14,1,25.60
83522,1.27,-4.7,3.3,338.3,0.9810,-0.0361,0.0357,0.1868,0.12,0.00,-0.30,43.557056,6.967249,-5.14,1,25.60
83522,1.27,-4.7,3.3,338.3,0.9810,-0.0361,0.0357,0.1868,0.12,0.00,-0.30,43.557056,6.967249,-5.14,1,25.60
83522,1.27,-4.7,3.3,338.3,0.9810,-0.0361,0.0357,0.1868,0.12,0.00,-0.30,43.557056,6.967249,-5.14,1,25.60
83522,1.27,-4.7,3.3,338.3,0.9810,-0.0361,0.0357,0.1868,0.12,0.00,-0.30,43.557056,6.967249,-5.14,1,25.60
83522,1.27,-4.7,3.3,338.3,0.9810,-0.0361,0.0357,0.1868,0.12,0.00,-0.30,43.557056,6.967249,-5.14,1,25.60
83534,1.27,-4.6,3.2,338.3,0.9810,-0.0358,0.0350,0.1871,0.15,0.01,-0.37,43.557056,6.967249,-5.21,1,25.60
83534,1.27,-4.6,3.2,338.3,0.9810,-0.0358,0.0350,0.1871,0.15,0.01,-0.37,43.557056,6.967249,-5.21,1,25.60
83534,1.27,-4.6,3.2,338.3,0.9810,-0.0358,0.0350,0.1871,0.15,0.01,-0.37,43.557056,6.967249,-5.21,1,25.60
83534,1.27,-4.6,3.2,338.3,0.9810,-0.0358,0.0350,0.1871,0.15,0.01,-0.37,43.557056,6.967249,-5.21,1,25.60
83534,1.27,-4.6,3.2,338.3,0.9810,-0.0358,0.0350,0.1871,0.15,0.01,-0.37,43.557056,6.967249,-5.21,1,25.60
83547,1.27,-4.6,3.2,338.3,0.9810,-0.0358,0.0350,0.1871,0.11,0.00,-0.34,43.557056,6.967249,-5.21,1,25.60
83547,1.28,-4.6,3.2,338.3,0.9810,-0.0358,0.0350,0.1871,0.11,0.00,-0.34,43.557056,6.967249,-5.21,1,25.60
83547,1.28,-4.6,3.2,338.3,0.9810,-0.0358,0.0350,0.1871,0.11,0.00,-0.34,43.557056,6.967249,-5.21,1,25.60
83547,1.28,-4.6,3.2,338.3,0.9810,-0.0358,0.0350,0.1871,0.11,0.00,-0.34,43.557056,6.967249,-5.21,1,25.60
83547,1.27,-4.6,3.2,338.3,0.9810,-0.0358,0.0350,0.1871,0.11,0.00,-0.34,43.557056,6.967249,-5.21,1,25.60
83560,1.27,-4.6,3.2,338.3,0.9810,-0.0358,0.0350,0.1870,0.11,0.00,-0.34,43.557056,6.967253,-5.21,1,25.60
83560,1.27,-4.6,3.2,338.3,0.9810,-0.0358,0.0350,0.1870,0.11,0.00,-0.34,43.557056,6.967253,-5.21,1,25.60
83560,1.27,-4.6,3.2,338.3,0.9810,-0.0358,0.0350,0.1870,0.11,0.00,-0.34,43.557056,6.967253,-5.21,1,25.60
83560,1.27,-4.6,3.2,338.3,0.9810,-0.0358,0.0350,0.1870,0.11,0.00,-0.34,43.557056,6.967253,-5.21,1,25.60
83560,1.27,-4.6,3.2,338.3,0.9810,-0.0358,0.0350,0.1870,0.11,0.00,-0.34,43.557056,6.967253,-5.21,1,25.60
83573,1.27,-4.6,3.2,338.3,0.9810,-0.0360,0.0352,0.1870,0.10,-0.01,-0.34,43.557056,6.967253,-5.21,1,25.60
83573,1.27,-4.6,3.2,338.3,0.9810,-0.0360,0.0352,0.1870,0.10,-0.01,-0.34,43.557056,6.967253,-5.21,1,25.60
83573,1.27,-4.6,3.2,338.3,0.9810,-0.0360,0.0352,0.1870,0.10,-0.01,-0.34,43.557056,6.967253,-5.21,1,25.60
83573,1.27,-4.6,3.2,338.3,0.9810,-0.0360,0.0352,0.1870,0.10,-0.01,-0.34,43.557056,6.967253,-5.21,1,25.60
