tx_timestamp_ms,distance,roll,pitch,yaw,quat_w,quat_x,quat_y,quat_z,accel_x,accel_y,accel_z,latitude,longitude,altitude,flags_raw,gnss_alt
84110,0.07,0.0,0.0,0.0,0.0000,0.0000,0.0000,0.0000,0.00,0.00,0.00,43.244384,-0.039981,0.00,1,414.10
84110,0.05,0.0,0.0,0.0,0.0000,0.0000,0.0000,0.0000,0.00,0.00,0.00,43.244384,-0.039981,0.00,1,414.10
84110,0.05,0.0,0.0,0.0,0.0000,0.0000,0.0000,0.0000,0.00,0.00,0.00,43.244384,-0.039981,0.00,1,414.10
84110,0.07,0.0,0.0,0.0,0.0000,0.0000,0.0000,0.0000,0.00,0.00,0.00,43.244384,-0.039981,0.00,1,414.10
84110,0.05,0.0,0.0,0.0,0.0000,0.0000,0.0000,0.0000,0.00,0.00,0.00,43.244384,-0.039981,0.00,1,414.10
84123,0.05,0.0,3.0,60.1,0.8650,-0.0237,0.0128,-0.5009,0.10,0.00,-0.22,43.244384,-0.039981,0.00,1,414.10
84123,0.05,0.0,3.0,60.1,0.8650,-0.0237,0.0128,-0.5009,0.10,0.00,-0.22,43.244384,-0.039981,0.00,1,414.10
84123,0.05,0.0,3.0,60.1,0.8650,-0.0237,0.0128,-0.5009,0.10,0.00,-0.22,43.244384,-0.039981,0.00,1,414.10
84123,0.05,0.0,3.0,60.1,0.8650,-0.0237,0.0128,-0.5009,0.10,0.00,-0.22,43.244384,-0.039981,0.00,1,414.10
84123,0.05,0.0,3.0,60.1,0.8650,-0.0237,0.0128,-0.5009,0.10,0.00,-0.22,43.244384,-0.039981,0.00,1,414.10
84136,0.05,0.0,3.0,60.1,0.8651,-0.0236,0.0127,-0.5007,0.12,0.05,-0.27,43.244384,-0.039981,0.00,1,414.10
84136,0.05,0.0,3.0,60.1,0.8651,-0.0236,0.0127,-0.5007,0.12,0.05,-0.27,43.244384,-0.039981,0.00,1,414.10
84136,0.05,0.0,3.0,60.1,0.8651,-0.0236,0.0127,-0.5007,0.12,0.05,-0.27,43.244384,-0.039981,0.00,1,414.10
84136,0.05,0.0,3.0,60.1,0.8651,-0.0236,0.0127,-0.5007,0.12,0.05,-0.27,43.244384,-0.039981,0.00,1,414.10
84136,0.05,0.0,3.0,60.1,0.8651,-0.0236,0.0127,-0.5007,0.12,0.05,-0.27,43.244384,-0.039981,0.00,1,414.10
84148,0.05,0.0,3.0,60.1,0.8651,-0.0236,0.0126,-0.5007,0.15,0.03,-0.23,43.244384,-0.039981,0.00,1,414.10
84148,0.05,0.0,3.0,60.1,0.8651,-0.0236,0.0126,-0.5007,0.15,0.03,-0.23,43.244384,-0.039981,0.00,1,414.10
84148,0.05,0.0,3.0,60.1,0.8651,-0.0236,0.0126,-0.5007,0.15,0.03,-0.23,43.244384,-0.039981,0.00,1,414.10
84148,0.07,0.0,3.0,60.1,0.8651,-0.0236,0.0126,-0.5007,0.15,0.03,-0.23,43.244384,-0.039981,0.00,1,414.10
84148,0.05,0.0,3.0,60.1,0.8651,-0.0236,0.0126,-0.5007,0.15,0.03,-0.23,43.244384,-0.039981,0.00,1,414.10
84161,0.05,0.0,3.0,60.1,0.8651,-0.0236,0.0126,-0.5007,0.11,0.01,-0.19,43.244384,-0.039981,-1.20,1,414.10
84161,0.05,0.0,3.0,60.1,0.8651,-0.0236,0.0126,-0.5007,0.11,0.01,-0.19,43.244384,-0.039981,-1.20,1,414.10
84161,0.05,0.0,3.0,60.1,0.8651,-0.0236,0.0126,-0.5007,0.11,0.01,-0.19,43.244384,-0.039981,-1.20,1,414.10
84161,0.05,0.0,3.0,60.1,0.8651,-0.0236,0.0126,-0.5007,0.11,0.01,-0.19,43.244384,-0.039981,-1.20,1,414.10
84161,0.05,0.0,3.0,60.1,0.8651,-0.0236,0.0126,-0.5007,0.11,0.01,-0.19,43.244384,-0.039981,-1.20,1,414.10
84174,0.05,0.0,3.0,60.1,0.8651,-0.0236,0.0127,-0.5008,0.07,0.02,-0.15,43.244384,-0.039981,-1.20,1,414.10
84174,0.05,0.0,3.0,60.1,0.8651,-0.0236,0.0127,-0.5008,0.07,0.02,-0.15,43.244384,-0.039981,-1.20,1,414.10
84174,0.05,0.0,3.0,60.1,0.8651,-0.0236,0.0127,-0.5008,0.07,0.02,-0.15,43.244384,-0.039981,-1.20,1,414.10
84174,0.05,0.0,3.0,60.1,0.8651,-0.0236,0.0127,-0.5008,0.07,0.02,-0.15,43.244384,-0.039981,-1.20,1,414.10
84174,0.05,0.0,3.0,60.1,0.8651,-0.0236,0.0127,-0.5008,0.07,0.02,-0.15,43.244384,-0.039981,-1.20,1,414.10
84187,0.05,0.0,3.0,60.1,0.8650,-0.0236,0.0128,-0.5009,0.10,-0.07,-0.19,43.244384,-0.039981,-1.20,1,414.10
84187,0.05,0.0,3.0,60.1,0.8650,-0.0236,0.0128,-0.5009,0.10,-0.07,-0.19,43.244384,-0.039981,-1.20,1,414.10
84187,0.05,0.0,3.0,60.1,0.8650,-0.0236,0.0128,-0.5009,0.10,-0.07,-0.19,43.244384,-0.039981,-1.20,1,414.10
84187,0.05,0.0,3.0,60.1,0.8650,-0.0236,0.0128,-0.5009,0.10,-0.07,-0.19,43.244384,-0.039981,-1.20,1,414.10
84187,0.05,0.0,3.0,60.1,0.8650,-0.0236,0.0128,-0.5009,0.10,-0.07,-0.19,43.244384,-0.039981,-1.20,1,414.10
84199,0.05,0.0,3.0,60.1,0.8649,-0.0234,0.0130,-0.5011,0.07,-0.10,-0.12,43.244384,-0.039981,-1.20,1,414.10
84199,0.05,0.0,3.0,60.1,0.8649,-0.0234,0.0130,-0.5011,0.07,-0.10,-0.12,43.244384,-0.039981,-1.20,1,414.10
84199,0.05,0.0,3.0,60.1,0.8649,-0.0234,0.0130,-0.5011,0.07,-0.10,-0.12,43.244384,-0.039981,-1.20,1,414.10
84199,0.05,0.0,3.0,60.1,0.8649,-0.0234,0.0130,-0.5011,0.07,-0.10,-0.12,43.244384,-0.039981,-1.20,1,414.10
84199,0.05,0.0,3.0,60.1,0.8649,-0.0234,0.0130,-0.5011,0.07,-0.10,-0.12,43.244384,-0.039981,-1.20,1,414.10
84212,0.05,0.0,3.0,60.1,0.8649,-0.0234,0.0130,-0.5012,0.05,-0.07,-0.11,43.244384,-0.039981,-1.20,1,414.10
84212,0.07,0.0,3.0,60.1,0.8649,-0.0234,0.0130,-0.5012,0.05,-0.07,-0.11,43.244384,-0.039981,-1.20,1,414.10
84212,0.05,0.0,3.0,60.1,0.8649,-0.0234,0.0130,-0.5012,0.05,-0.07,-0.11,43.244384,-0.039981,-1.20,1,414.10
84212,0.05,0.0,3.0,60.1,0.8649,-0.0234,0.0130,-0.5012,0.05,-0.07,-0.11,43.244384,-0.039981,-1.20,1,414.10
84212,0.05,0.0,3.0,60.1,0.8649,-0.0234,0.0130,-0.5012,0.05,-0.07,-0.11,43.244384,-0.039981,-1.20,1,414.10
84225,0.05,0.0,3.0,60.1,0.8649,-0.0235,0.0130,-0.5012,0.03,0.00,-0.18,43.244384,-0.039981,-1.20,1,414.10
84225,0.05,0.0,3.0,60.1,0.8649,-0.0235,0.0130,-0.5012,0.03,0.00,-0.18,43.244384,-0.039981,-1.20,1,414.10
84225,0.05,0.0,3.0,60.1,0.8649,-0.0235,0.0130,-0.5012,0.03,0.00,-0.18,43.244384,-0.039981,-1.20,1,414.10
84225,0.07,0.0,3.0,60.1,0.8649,-0.0235,0.0130,-0.5012,0.03,0.00,-0.18,43.244384,-0.039981,-1.20,1,414.10
84225,0.05,0.0,3.0,60.1,0.8649,-0.0235,0.0130,-0.5012,0.03,0.00,-0.18,43.244384,-0.039981,-1.20,1,414.10
84238,0.05,0.0,3.0,60.1,0.8649,-0.0236,0.0128,-0.5012,0.00,0.03,-0.18,43.244384,-0.039981,-1.20,1,414.10
84238,0.05,0.0,3.0,60.1,0.8649,-0.0236,0.0128,-0.5012,0.00,0.03,-0.18,43.244384,-0.039981,-1.20,1,414.10
84238,0.05,0.0,3.0,60.1,0.8649,-0.0236,0.0128,-0.5012,0.00,0.03,-0.18,43.244384,-0.039981,-1.20,1,414.10
84238,0.05,0.0,3.0,60.1,0.8649,-0.0236,0.0128,-0.5012,0.00,0.03,-0.18,43.244384,-0.039981,-1.20,1,414.10
84238,0.05,0.0,3.0,60.1,0.8649,-0.0236,0.0128,-0.5012,0.00,0.03,-0.18,43.244384,-0.039981,-1.20,1,414.10
84250,0.05,0.0,3.0,60.1,0.8649,-0.0236,0.0128,-0.5012,0.00,0.05,-0.20,43.244384,-0.039981,-1.20,1,414.10
84250,0.05,0.0,3.0,60.1,0.8649,-0.0236,0.0128,-0.5012,0.00,0.05,-0.20,43.244384,-0.039981,-1.20,1,414.10
84250,0.05,0.0,3.0,60.1,0.8649,-0.0236,0.0128,-0.5012,0.00,0.05,-0.20,43.244384,-0.039981,-1.20,1,414.10
84250,0.05,0.0,3.0,60.1,0.8649,-0.0236,0.0128,-0.5012,0.00,0.05,-0.20,43.244384,-0.039981,-1.20,1,414.10
84250,0.05,0.0,3.0,60.1,0.8649,-0.0236,0.0128,-0.5012,0.00,0.05,-0.20,43.244384,-0.039981,-1.20,1,414.10
84359,0.05,0.0,3.0,60.1,0.8649,-0.0236,0.0128,-0.5012,0.10,0.00,-0.12,43.244384,-0.039981,-1.25,1,414.10
84359,0.05,0.0,3.0,60.1,0.8649,-0.0236,0.0128,-0.5012,0.10,0.00,-0.12,43.244384,-0.039981,-1.25,1,414.10
84359,0.05,0.0,3.0,60.1,0.8649,-0.0236,0.0128,-0.5012,0.10,0.00,-0.12,43.244384,-0.039981,-1.25,1,414.10
84359,0.05,0.0,3.0,60.1,0.8649,-0.0236,0.0128,-0.5012,0.10,0.00,-0.12,43.244384,-0.039981,-1.25,1,414.10
84359,0.05,0.0,3.0,60.1,0.8649,-0.0236,0.0128,-0.5012,0.10,0.00,-0.12,43.244384,-0.039981,-1.25,1,414.10
84359,0.05,0.0,3.0,60.1,0.8649,-0.0236,0.0128,-0.5012,0.10,0.00,-0.12,43.244384,-0.039981,-1.25,1,414.10
84359,0.05,0.0,3.0,60.1,0.8649,-0.0236,0.0128,-0.5012,0.10,0.00,-0.12,43.244384,-0.039981,-1.25,1,414.10
84359,0.05,0.0,3.0,60.1,0.8649,-0.0236,0.0128,-0.5012,0.10,0.00,-0.12,43.244384,-0.039981,-1.25,1,414.10
84359,0.05,0.0,3.0,60.1,0.8649,-0.0236,0.0128,-0.5012,0.10,0.00,-0.12,43.244384,-0.039981,-1.25,1,414.10
84359,0.05,0.0,3.0,60.1,0.8649,-0.0236,0.0128,-0.5012,0.10,0.00,-0.12,43.244384,-0.039981,-1.25,1,414.10
84359,0.05,0.0,3.0,60.1,0.8649,-0.0236,0.0128,-0.5012,0.10,0.00,-0.12,43.244384,-0.039981,-1.25,1,414.10
84359,0.05,0.0,3.0,60.1,0.8649,-0.0236,0.0128,-0.5012,0.10,0.00,-0.12,43.244384,-0.039981,-1.25,1,414.10
84359,0.05,0.0,3.0,60.1,0.8649,-0.0236,0.0128,-0.5012,0.10,0.00,-0.12,43.244384,-0.039981,-1.25,1,414.10
84359,0.05,0.0,3.0,60.1,0.8649,-0.0236,0.0128,-0.5012,0.10,0.00,-0.12,43.244384,-0.039981,-1.25,1,414.10
84359,0.05,0.0,3.0,60.1,0.8649,-0.0236,0.0128,-0.5012,0.10,0.00,-0.12,43.244384,-0.039981,-1.25,1,414.10
84360,0.05,0.0,3.0,60.1,0.8649,-0.0236,0.0128,-0.5012,0.10,0.00,-0.12,43.244384,-0.039981,-1.25,1,414.10
84360,0.05,0.0,3.0,60.1,0.8649,-0.0236,0.0128,-0.5012,0.10,0.00,-0.12,43.244384,-0.039981,-1.25,1,414.10
84360,0.05,0.0,3.0,60.1,0.8649,-0.0236,0.0128,-0.5012,0.10,0.00,-0.12,43.244384,-0.039981,-1.25,1,414.10
84360,0.05,0.0,3.0,60.1,0.8649,-0.0236,0.0128,-0.5012,0.10,0.00,-0.12,43.244384,-0.039981,-1.25,1,414.10
84378,0.05,0.0,3.0,60.1,0.8648,-0.0232,0.0129,-0.5013,0.07,-0.07,-0.10,43.244384,-0.039981,-1.25,1,414.10
84378,0.05,0.0,3.0,60.1,0.8648,-0.0232,0.0129,-0.5013,0.07,-0.07,-0.10,43.244384,-0.039981,-1.25,1,414.10
84378,0.05,0.0,3.0,60.1,0.8648,-0.0232,0.0129,-0.5013,0.07,-0.07,-0.10,43.244384,-0.039981,-1.25,1,414.10
84378,0.05,0.0,3.0,60.1,0.8648,-0.0232,0.0129,-0.5013,0.07,-0.07,-0.10,43.244384,-0.039981,-1.25,1,414.10
84378,0.05,0.0,3.0,60.1,0.8648,-0.0232,0.0129,-0.5013,0.07,-0.07,-0.10,43.244384,-0.039981,-1.25,1,414.10
84391,0.05,0.0,3.0,60.1,0.8647,-0.0234,0.0130,-0.5014,0.07,-0.11,-0.07,43.244384,-0.039981,-1.25,1,414.10
84391,0.05,0.0,3.0,60.1,0.8647,-0.0234,0.0130,-0.5014,0.07,-0.11,-0.07,43.244384,-0.039981,-1.25,1,414.10
84391,0.05,0.0,3.0,60.1,0.8647,-0.0234,0.0130,-0.5014,0.07,-0.11,-0.07,43.244384,-0.039981,-1.25,1,414.10
84391,0.05,0.0,3.0,60.1,0.8647,-0.0234,0.0130,-0.5014,0.07,-0.11,-0.07,43.244384,-0.039981,-1.25,1,414.10
84391,0.05,0.0,3.0,60.1,0.8647,-0.0234,0.0130,-0.5014,0.07,-0.11,-0.07,43.244384,-0.039981,-1.25,1,414.10
84403,0.05,0.0,3.0,60.1,0.8646,-0.0236,0.0131,-0.5016,0.00,0.00,-0.15,43.244384,-0.039981,-1.25,1,414.10
84403,0.05,0.0,3.0,60.1,0.8646,-0.0236,0.0131,-0.5016,0.00,0.00,-0.15,43.244384,-0.039981,-1.25,1,414.10
84403,0.05,0.0,3.0,60.1,0.8646,-0.0236,0.0131,-0.5016,0.00,0.00,-0.15,43.244384,-0.039981,-1.25,1,414.10
84403,0.05,0.0,3.0,60.1,0.8646,-0.0236,0.0131,-0.5016,0.00,0.00,-0.15,43.244384,-0.039981,-1.25,1,414.10
84403,0.05,0.0,3.0,60.1,0.8646,-0.0236,0.0131,-0.5016,0.00,0.00,-0.15,43.244384,-0.039981,-1.25,1,414.10
84416,0.05,0.0,3.0,60.1,0.8646,-0.0236,0.0131,-0.5016,0.05,0.00,-0.25,43.244384,-0.039981,-1.27,1,414.10
84416,0.05,0.0,3.0,60.1,0.8646,-0.0236,0.0131,-0.5016,0.05,0.00,-0.25,43.244384,-0.039981,-1.27,1,414.10
84416,0.05,0.0,3.0,60.1,0.8646,-0.0236,0.0131,-0.5016,0.05,0.00,-0.25,43.244384,-0.039981,-1.27,1,414.10
84416,0.05,0.0,3.0,60.1,0.8646,-0.0236,0.0131,-0.5016,0.05,0.00,-0.25,43.244384,-0.039981,-1.27,1,414.10
84416,0.05,0.0,3.0,60.1,0.8646,-0.0236,0.0131,-0.5016,0.05,0.00,-0.25,43.244384,-0.039981,-1.27,1,414.10
84429,0.05,0.0,3.0,60.1,0.8646,-0.0236,0.0131,-0.5015,0.01,0.01,-0.25,43.244384,-0.039981,-1.27,1,414.10
84429,0.05,0.0,3.0,60.1,0.8646,-0.0236,0.0131,-0.5015,0.01,0.01,-0.25,43.244384,-0.039981,-1.27,1,414.10
84429,0.05,0.0,3.0,60.1,0.8646,-0.0236,0.0131,-0.5015,0.01,0.01,-0.25,43.244384,-0.039981,-1.27,1,414.10
84429,0.05,0.0,3.0,60.1,0.8646,-0.0236,0.0131,-0.5015,0.01,0.01,-0.25,43.244384,-0.039981,-1.27,1,414.10
84429,0.05,0.0,3.0,60.1,0.8646,-0.0236,0.0131,-0.5015,0.01,0.01,-0.25,43.244384,-0.039981,-1.27,1,414.10
84442,0.05,0.0,3.0,60.1,0.8647,-0.0235,0.0130,-0.5015,-0.00,0.05,-0.22,43.244384,-0.039981,-1.27,1,414.10
84442,0.05,0.0,3.0,60.1,0.8647,-0.0235,0.0130,-0.5015,-0.00,0.05,-0.22,43.244384,-0.039981,-1.27,1,414.10
84442,0.05,0.0,3.0,60.1,0.8647,-0.0235,0.0130,-0.5015,-0.00,0.05,-0.22,43.244384,-0.039981,-1.27,1,414.10
84442,0.05,0.0,3.0,60.1,0.8647,-0.0235,0.0130,-0.5015,-0.00,0.05,-0.22,43.244384,-0.039981,-1.27,1,414.10
84442,0.05,0.0,3.0,60.1,0.8647,-0.0235,0.0130,-0.5015,-0.00,0.05,-0.22,43.244384,-0.039981,-1.27,1,414.10
84454,0.05,0.0,3.0,60.1,0.8647,-0.0236,0.0128,-0.5014,0.02,0.05,-0.13,43.244384,-0.039981,-1.27,1,414.10
84454,0.05,0.0,3.0,60.1,0.8647,-0.0236,0.0128,-0.5014,0.02,0.05,-0.13,43.244384,-0.039981,-1.27,1,414.10
84454,0.05,0.0,3.0,60.1,0.8647,-0.0236,0.0128,-0.5014,0.02,0.05,-0.13,43.244384,-0.039981,-1.27,1,414.10
84454,0.05,0.0,3.0,60.1,0.8647,-0.0236,0.0128,-0.5014,0.02,0.05,-0.13,43.244384,-0.039981,-1.27,1,414.10
84454,0.05,0.0,3.0,60.1,0.8647,-0.0236,0.0128,-0.5014,0.02,0.05,-0.13,43.244384,-0.039981,-1.27,1,414.10
84467,0.05,0.0,3.0,60.1,0.8647,-0.0238,0.0129,-0.5015,0.05,0.00,-0.07,43.244384,-0.039981,-1.29,1,414.10
84467,0.05,0.0,3.0,60.1,0.8647,-0.0238,0.0129,-0.5015,0.05,0.00,-0.07,43.244384,-0.039981,-1.29,1,414.10
84467,0.05,0.0,3.0,60.1,0.8647,-0.0238,0.0129,-0.5015,0.05,0.00,-0.07,43.244384,-0.039981,-1.29,1,414.10
84467,0.05,0.0,3.0,60.1,0.8647,-0.0238,0.0129,-0.5015,0.05,0.00,-0.07,43.244384,-0.039981,-1.29,1,414.10
84467,0.05,0.0,3.0,60.1,0.8647,-0.0238,0.0129,-0.5015,0.05,0.00,-0.07,43.244384,-0.039981,-1.29,1,414.10
84480,0.05,0.0,3.0,60.1,0.8646,-0.0238,0.0131,-0.5015,0.07,-0.02,-0.00,43.244384,-0.039981,-1.29,1,414.10
84480,0.05,0.0,3.0,60.1,0.8646,-0.0238,0.0131,-0.5015,0.07,-0.02,-0.00,43.244384,-0.039981,-1.29,1,414.10
84480,0.05,0.0,3.0,60.1,0.8646,-0.0238,0.0131,-0.5015,0.07,-0.02,-0.00,43.244384,-0.039981,-1.29,1,414.10
84480,0.05,0.0,3.0,60.1,0.8646,-0.0238,0.0131,-0.5015,0.07,-0.02,-0.00,43.244384,-0.039981,-1.29,1,414.10
84480,0.05,0.0,3.0,60.1,0.8646,-0.0238,0.0131,-0.5015,0.07,-0.02,-0.00,43.244384,-0.039981,-1.29,1,414.10
84493,0.05,0.0,3.1,60.1,0.8646,-0.0238,0.0133,-0.5016,0.09,-0.00,-0.05,43.244384,-0.039981,-1.29,1,414.10
84493,0.05,0.0,3.1,60.1,0.8646,-0.0238,0.0133,-0.5016,0.09,-0.00,-0.05,43.244384,-0.039981,-1.29,1,414.10
84493,0.05,0.0,3.1,60.1,0.8646,-0.0238,0.0133,-0.5016,0.09,-0.00,-0.05,43.244384,-0.039981,-1.29,1,414.10
84493,0.05,0.0,3.1,60.1,0.8646,-0.0238,0.0133,-0.5016,0.09,-0.00,-0.05,43.244384,-0.039981,-1.29,1,414.10
84493,0.05,0.0,3.1,60.1,0.8646,-0.0238,0.0133,-0.5016,0.09,-0.00,-0.05,43.244384,-0.039981,-1.29,1,414.10
84505,0.05,0.0,3.1,60.1,0.8646,-0.0239,0.0137,-0.5017,0.13,0.00,-0.22,43.244384,-0.039981,-1.29,1,414.10
84505,0.05,0.0,3.1,60.1,0.8646,-0.0239,0.0137,-0.5017,0.13,0.00,-0.22,43.244384,-0.039981,-1.29,1,414.10
84505,0.05,0.0,3.1,60.1,0.8646,-0.0239,0.0137,-0.5017,0.13,0.00,-0.22,43.244384,-0.039981,-1.29,1,414.10
84505,0.05,0.0,3.1,60.1,0.8646,-0.0239,0.0137,-0.5017,0.13,0.00,-0.22,43.244384,-0.039981,-1.29,1,414.10
84505,0.05,0.0,3.1,60.1,0.8646,-0.0239,0.0137,-0.5017,0.13,0.00,-0.22,43.244384,-0.039981,-1.29,1,414.10
84518,0.05,0.0,3.1,60.1,0.8646,-0.0239,0.0137,-0.5017,0.19,0.00,-0.25,43.244384,-0.039981,-1.32,1,414.10
84518,0.05,0.0,3.1,60.1,0.8646,-0.0239,0.0137,-0.5017,0.19,0.00,-0.25,43.244384,-0.039981,-1.32,1,414.10
84518,0.05,0.0,3.1,60.1,0.8646,-0.0239,0.0137,-0.5017,0.19,0.00,-0.25,43.244384,-0.039981,-1.32,1,414.10
84518,0.05,0.0,3.1,60.1,0.8646,-0.0239,0.0137,-0.5017,0.19,0.00,-0.25,43.244384,-0.039981,-1.32,1,414.10
84518,0.05,0.0,3.1,60.1,0.8646,-0.0239,0.0137,-0.5017,0.19,0.00,-0.25,43.244384,-0.039981,-1.32,1,414.10
84531,0.05,0.0,3.1,60.1,0.8646,-0.0238,0.0136,-0.5016,0.19,0.00,-0.20,43.244384,-0.039981,-1.32,1,414.10
84531,0.05,0.0,3.1,60.1,0.8646,-0.0238,0.0136,-0.5016,0.19,0.00,-0.20,43.244384,-0.039981,-1.32,1,414.10
84531,0.05,0.0,3.1,60.1,0.8646,-0.0238,0.0136,-0.5016,0.19,0.00,-0.20,43.244384,-0.039981,-1.32,1,414.10
84531,0.05,0.0,3.1,60.1,0.8646,-0.0238,0.0136,-0.5016,0.19,0.00,-0.20,43.244384,-0.039981,-1.32,1,414.10
84531,0.05,0.0,3.1,60.1,0.8646,-0.0238,0.0136,-0.5016,0.19,0.00,-0.20,43.244384,-0.039981,-1.32,1,414.10
84544,0.05,0.0,3.1,60.1,0.8646,-0.0237,0.0136,-0.5016,0.18,0.01,-0.18,43.244384,-0.039981,-1.32,1,414.10
84544,0.05,0.0,3.1,60.1,0.8646,-0.0237,0.0136,-0.5016,0.18,0.01,-0.18,43.244384,-0.039981,-1.32,1,414.10
84544,0.05,0.0,3.1,60.1,0.8646,-0.0237,0.0136,-0.5016,0.18,0.01,-0.18,43.244384,-0.039981,-1.32,1,414.10
84544,0.05,0.0,3.1,60.1,0.8646,-0.0237,0.0136,-0.5016,0.18,0.01,-0.18,43.244384,-0.039981,-1.32,1,414.10
84544,0.05,0.0,3.1,60.1,0.8646,-0.0237,0.0136,-0.5016,0.18,0.01,-0.18,43.244384,-0.039981,-1.32,1,414.10
84556,0.05,0.0,3.1,60.1,0.8646,-0.0238,0.0136,-0.5015,0.19,0.00,-0.20,43.244384,-0.039981,-1.32,1,414.10
84556,0.05,0.0,3.1,60.1,0.8646,-0.0238,0.0136,-0.5015,0.19,0.00,-0.20,43.244384,-0.039981,-1.32,1,414.10
84556,0.05,0.0,3.1,60.1,0.8646,-0.0238,0.0136,-0.5015,0.19,0.00,-0.20,43.244384,-0.039981,-1.32,1,414.10
84556,0.05,0.0,3.1,60.1,0.8646,-0.0238,0.0136,-0.5015,0.19,0.00,-0.20,43.244384,-0.039981,-1.32,1,414.10
84556,0.05,0.0,3.1,60.1,0.8646,-0.0238,0.0136,-0.5015,0.19,0.00,-0.20,43.244384,-0.039981,-1.32,1,414.10
84569,0.05,0.0,3.1,60.1,0.8646,-0.0240,0.0136,-0.5017,0.17,0.00,-0.15,43.244384,-0.039981,-1.34,1,414.10
84569,0.05,0.0,3.1,60.1,0.8646,-0.0240,0.0136,-0.5017,0.17,0.00,-0.15,43.244384,-0.039981,-1.34,1,414.10
84569,0.05,0.0,3.1,60.1,0.8646,-0.0240,0.0136,-0.5017,0.17,0.00,-0.15,43.244384,-0.039981,-1.34,1,414.10
84569,0.05,0.0,3.1,60.1,0.8646,-0.0240,0.0136,-0.5017,0.17,0.00,-0.15,43.244384,-0.039981,-1.34,1,414.10
84569,0.05,0.0,3.1,60.1,0.8646,-0.0240,0.0136,-0.5017,0.17,0.00,-0.15,43.244384,-0.039981,-1.34,1,414.10
84582,0.05,0.0,3.1,60.2,0.8645,-0.0241,0.0138,-0.5017,0.09,0.05,-0.11,43.244384,-0.039981,-1.34,1,414.10
84582,0.05,0.0,3.1,60.2,0.8645,-0.0241,0.0138,-0.5017,0.09,0.05,-0.11,43.244384,-0.039981,-1.34,1,414.10
84582,0.05,0.0,3.1,60.2,0.8645,-0.0241,0.0138,-0.5017,0.09,0.05,-0.11,43.244384,-0.039981,-1.34,1,414.10
84582,0.05,0.0,3.1,60.2,0.8645,-0.0241,0.0138,-0.5017,0.09,0.05,-0.11,43.244384,-0.039981,-1.34,1,414.10
84582,0.05,0.0,3.1,60.2,0.8645,-0.0241,0.0138,-0.5017,0.09,0.05,-0.11,43.244384,-0.039981,-1.34,1,414.10
84595,0.05,0.0,3.1,60.2,0.8645,-0.0241,0.0140,-0.5018,0.11,0.05,-0.15,43.244384,-0.039981,-1.34,1,414.10
84595,0.05,0.0,3.1,60.2,0.8645,-0.0241,0.0140,-0.5018,0.11,0.05,-0.15,43.244384,-0.039981,-1.34,1,414.10
84595,0.05,0.0,3.1,60.2,0.8645,-0.0241,0.0140,-0.5018,0.11,0.05,-0.15,43.244384,-0.039981,-1.34,1,414.10
84595,0.05,0.0,3.1,60.2,0.8645,-0.0241,0.0140,-0.5018,0.11,0.05,-0.15,43.244384,-0.039981,-1.34,1,414.10
84595,0.05,0.0,3.1,60.2,0.8645,-0.0241,0.0140,-0.5018,0.11,0.05,-0.15,43.244384,-0.039981,-1.34,1,414.10
84607,0.05,0.0,3.1,60.2,0.8643,-0.0241,0.0143,-0.5020,0.05,0.11,-0.18,43.244384,-0.039981,-1.34,1,414.10
84607,0.05,0.0,3.1,60.2,0.8643,-0.0241,0.0143,-0.5020,0.05,0.11,-0.18,43.244384,-0.039981,-1.34,1,414.10
84607,0.05,0.0,3.1,60.2,0.8643,-0.0241,0.0143,-0.5020,0.05,0.11,-0.18,43.244384,-0.039981,-1.34,1,414.10
84607,0.05,0.0,3.1,60.2,0.8643,-0.0241,0.0143,-0.5020,0.05,0.11,-0.18,43.244384,-0.039981,-1.34,1,414.10
84607,0.05,0.0,3.1,60.2,0.8643,-0.0241,0.0143,-0.5020,0.05,0.11,-0.18,43.244384,-0.039981,-1.34,1,414.10
84620,0.05,0.0,3.1,60.3,0.8643,-0.0242,0.0144,-0.5021,0.02,0.03,-0.12,43.244384,-0.039981,-1.37,1,414.10
84620,0.05,0.0,3.1,60.3,0.8643,-0.0242,0.0144,-0.5021,0.02,0.03,-0.12,43.244384,-0.039981,-1.37,1,414.10
84620,0.05,0.0,3.1,60.3,0.8643,-0.0242,0.0144,-0.5021,0.02,0.03,-0.12,43.244384,-0.039981,-1.37,1,414.10
84620,0.05,0.0,3.1,60.3,0.8643,-0.0242,0.0144,-0.5021,0.02,0.03,-0.12,43.244384,-0.039981,-1.37,1,414.10
84620,0.05,0.0,3.1,60.3,0.8643,-0.0242,0.0144,-0.5021,0.02,0.03,-0.12,43.244384,-0.039981,-1.37,1,414.10
84633,0.05,0.0,3.1,60.3,0.8642,-0.0243,0.0143,-0.5022,0.00,0.00,-0.11,43.244384,-0.039981,-1.37,1,414.10
84633,0.05,0.0,3.1,60.3,0.8642,-0.0243,0.0143,-0.5022,0.00,0.00,-0.11,43.244384,-0.039981,-1.37,1,414.10
84633,0.05,0.0,3.1,60.3,0.8642,-0.0243,0.0143,-0.5022,0.00,0.00,-0.11,43.244384,-0.039981,-1.37,1,414.10
84633,0.05,0.0,3.1,60.3,0.8642,-0.0243,0.0143,-0.5022,0.00,0.00,-0.11,43.244384,-0.039981,-1.37,1,414.10
84633,0.05,0.0,3.1,60.3,0.8642,-0.0243,0.0143,-0.5022,0.00,0.00,-0.11,43.244384,-0.039981,-1.37,1,414.10
84646,0.05,0.0,3.1,60.3,0.8641,-0.0243,0.0143,-0.5023,-0.02,-0.05,-0.02,43.244384,-0.039981,-1.37,1,414.10
84646,0.05,0.0,3.1,60.3,0.8641,-0.0243,0.0143,-0.5023,-0.02,-0.05,-0.02,43.244384,-0.039981,-1.37,1,414.10
84646,0.05,0.0,3.1,60.3,0.8641,-0.0243,0.0143,-0.5023,-0.02,-0.05,-0.02,43.244384,-0.039981,-1.37,1,414.10
84646,0.05,0.0,3.1,60.3,0.8641,-0.0243,0.0143,-0.5023,-0.02,-0.05,-0.02,43.244384,-0.039981,-1.37,1,414.10
84646,0.05,0.0,3.1,60.3,0.8641,-0.0243,0.0143,-0.5023,-0.02,-0.05,-0.02,43.244384,-0.039981,-1.37,1,414.10
84658,0.05,0.0,3.1,60.3,0.8640,-0.0242,0.0145,-0.5025,-0.02,-0.07,-0.07,43.244384,-0.039981,-1.37,1,414.10
84658,0.05,0.0,3.1,60.3,0.8640,-0.0242,0.0145,-0.5025,-0.02,-0.07,-0.07,43.244384,-0.039981,-1.37,1,414.10
84658,0.05,0.0,3.1,60.3,0.8640,-0.0242,0.0145,-0.5025,-0.02,-0.07,-0.07,43.244384,-0.039981,-1.37,1,414.10
84658,0.05,0.0,3.1,60.3,0.8640,-0.0242,0.0145,-0.5025,-0.02,-0.07,-0.07,43.244384,-0.039981,-1.37,1,414.10
84658,0.05,0.0,3.1,60.3,0.8640,-0.0242,0.0145,-0.5025,-0.02,-0.07,-0.07,43.244384,-0.039981,-1.37,1,414.10
84671,0.05,0.0,3.1,60.3,0.8640,-0.0241,0.0146,-0.5025,0.00,-0.07,-0.11,43.244384,-0.039981,-1.41,1,414.10
84671,0.05,0.0,3.1,60.3,0.8640,-0.0241,0.0146,-0.5025,0.00,-0.07,-0.11,43.244384,-0.039981,-1.41,1,414.10
84671,0.05,0.0,3.1,60.3,0.8640,-0.0241,0.0146,-0.5025,0.00,-0.07,-0.11,43.244384,-0.039981,-1.41,1,414.10
84671,0.05,0.0,3.1,60.3,0.8640,-0.0241,0.0146,-0.5025,0.00,-0.07,-0.11,43.244384,-0.039981,-1.41,1,414.10
84671,0.05,0.0,3.1,60.3,0.8640,-0.0241,0.0146,-0.5025,0.00,-0.07,-0.11,43.244384,-0.039981,-1.41,1,414.10
84684,0.05,-0.0,3.1,60.3,0.8641,-0.0240,0.0147,-0.5025,0.09,-0.01,-0.25,43.244384,-0.039981,-1.41,1,414.10
84684,0.05,-0.0,3.1,60.3,0.8641,-0.0240,0.0147,-0.5025,0.09,-0.01,-0.25,43.244384,-0.039981,-1.41,1,414.10
84684,0.05,-0.0,3.1,60.3,0.8641,-0.0240,0.0147,-0.5025,0.09,-0.01,-0.25,43.244384,-0.039981,-1.41,1,414.10
84684,0.05,-0.0,3.1,60.3,0.8641,-0.0240,0.0147,-0.5025,0.09,-0.01,-0.25,43.244384,-0.039981,-1.41,1,414.10
84684,0.05,-0.0,3.1,60.3,0.8641,-0.0240,0.0147,-0.5025,0.09,-0.01,-0.25,43.244384,-0.039981,-1.41,1,414.10
84697,0.05,-0.0,3.1,60.3,0.8641,-0.0239,0.0147,-0.5024,0.12,0.00,-0.25,43.244384,-0.039981,-1.41,1,414.10
84697,0.05,-0.0,3.1,60.3,0.8641,-0.0239,0.0147,-0.5024,0.12,0.00,-0.25,43.244384,-0.039981,-1.41,1,414.10
84697,0.05,-0.0,3.1,60.3,0.8641,-0.0239,0.0147,-0.5024,0.12,0.00,-0.25,43.244384,-0.039981,-1.41,1,414.10
84697,0.05,-0.0,3.1,60.3,0.8641,-0.0239,0.0147,-0.5024,0.12,0.00,-0.25,43.244384,-0.039981,-1.41,1,414.10
84697,0.05,-0.0,3.1,60.3,0.8641,-0.0239,0.0147,-0.5024,0.12,0.00,-0.25,43.244384,-0.039981,-1.41,1,414.10
84709,0.05,-0.0,3.1,60.3,0.8641,-0.0237,0.0147,-0.5023,0.12,0.00,-0.23,43.244384,-0.039981,-1.41,1,414.10
84709,0.05,-0.0,3.1,60.3,0.8641,-0.0237,0.0147,-0.5023,0.12,0.00,-0.23,43.244384,-0.039981,-1.41,1,414.10
84709,0.05,-0.0,3.1,60.3,0.8641,-0.0237,0.0147,-0.5023,0.12,0.00,-0.23,43.244384,-0.039981,-1.41,1,414.10
84709,0.05,-0.0,3.1,60.3,0.8641,-0.0237,0.0147,-0.5023,0.12,0.00,-0.23,43.244384,-0.039981,-1.41,1,414.10
84709,0.05,-0.0,3.1,60.3,0.8641,-0.0237,0.0147,-0.5023,0.12,0.00,-0.23,43.244384,-0.039981,-1.41,1,414.10
84722,0.05,-0.0,3.1,60.3,0.8641,-0.0237,0.0147,-0.5023,0.11,-0.03,-0.23,43.244384,-0.039981,-1.45,1,414.10
84722,0.05,-0.0,3.1,60.3,0.8641,-0.0237,0.0147,-0.5023,0.11,-0.03,-0.23,43.244384,-0.039981,-1.45,1,414.10
84722,0.05,-0.0,3.1,60.3,0.8641,-0.0237,0.0147,-0.5023,0.11,-0.03,-0.23,43.244384,-0.039981,-1.45,1,414.10
84722,0.05,-0.0,3.1,60.3,0.8641,-0.0237,0.0147,-0.5023,0.11,-0.03,-0.23,43.244384,-0.039981,-1.45,1,414.10
84722,0.05,-0.0,3.1,60.3,0.8641,-0.0237,0.0147,-0.5023,0.11,-0.03,-0.23,43.244384,-0.039981,-1.45,1,414.10
84735,0.05,-0.0,3.1,60.3,0.8641,-0.0237,0.0147,-0.5023,0.07,-0.02,-0.28,43.244384,-0.039981,-1.45,1,414.10
84735,0.05,-0.0,3.1,60.3,0.8641,-0.0237,0.0147,-0.5023,0.07,-0.02,-0.28,43.244384,-0.039981,-1.45,1,414.10
84735,0.05,-0.0,3.1,60.3,0.8641,-0.0237,0.0147,-0.5023,0.07,-0.02,-0.28,43.244384,-0.039981,-1.45,1,414.10
84735,0.05,-0.0,3.1,60.3,0.8641,-0.0237,0.0147,-0.5023,0.07,-0.02,-0.28,43.244384,-0.039981,-1.45,1,414.10
84735,0.05,-0.0,3.1,60.3,0.8641,-0.0237,0.0147,-0.5023,0.07,-0.02,-0.28,43.244384,-0.039981,-1.45,1,414.10
84748,0.05,-0.0,3.1,60.3,0.8641,-0.0237,0.0147,-0.5023,0.12,-0.03,-0.28,43.244384,-0.039981,-1.45,1,414.10
84748,0.05,-0.0,3.1,60.3,0.8641,-0.0237,0.0147,-0.5023,0.12,-0.03,-0.28,43.244384,-0.039981,-1.45,1,414.10
84748,0.05,-0.0,3.1,60.3,0.8641,-0.0237,0.0147,-0.5023,0.12,-0.03,-0.28,43.244384,-0.039981,-1.45,1,414.10
84748,0.05,-0.0,3.1,60.3,0.8641,-0.0237,0.0147,-0.5023,0.12,-0.03,-0.28,43.244384,-0.039981,-1.45,1,414.10
84748,0.05,-0.0,3.1,60.3,0.8641,-0.0237,0.0147,-0.5023,0.12,-0.03,-0.28,43.244384,-0.039981,-1.45,1,414.10
84760,0.05,-0.0,3.1,60.3,0.8641,-0.0237,0.0147,-0.5023,0.17,-0.05,-0.23,43.244384,-0.039981,-1.45,1,414.10
84760,0.05,-0.0,3.1,60.3,0.8641,-0.0237,0.0147,-0.5023,0.17,-0.05,-0.23,43.244384,-0.039981,-1.45,1,414.10
84760,0.05,-0.0,3.1,60.3,0.8641,-0.0237,0.0147,-0.5023,0.17,-0.05,-0.23,43.244384,-0.039981,-1.45,1,414.10
84760,0.05,-0.0,3.1,60.3,0.8641,-0.0237,0.0147,-0.5023,0.17,-0.05,-0.23,43.244384,-0.039981,-1.45,1,414.10
84760,0.05,-0.0,3.1,60.3,0.8641,-0.0237,0.0147,-0.5023,0.17,-0.05,-0.23,43.244384,-0.039981,-1.45,1,414.10
84773,0.05,-0.0,3.1,60.3,0.8641,-0.0237,0.0148,-0.5023,0.07,-0.11,-0.19,43.244384,-0.039981,-1.50,1,414.10
84773,0.05,-0.0,3.1,60.3,0.8641,-0.0237,0.0148,-0.5023,0.07,-0.11,-0.19,43.244384,-0.039981,-1.50,1,414.10
84773,0.05,-0.0,3.1,60.3,0.8641,-0.0237,0.0148,-0.5023,0.07,-0.11,-0.19,43.244384,-0.039981,-1.50,1,414.10
84773,0.05,-0.0,3.1,60.3,0.8641,-0.0237,0.0148,-0.5023,0.07,-0.11,-0.19,43.244384,-0.039981,-1.50,1,414.10
84773,0.05,-0.0,3.1,60.3,0.8641,-0.0237,0.0148,-0.5023,0.07,-0.11,-0.19,43.244384,-0.039981,-1.50,1,414.10
84786,0.05,-0.0,3.1,60.3,0.8641,-0.0237,0.0148,-0.5023,0.05,-0.07,-0.20,43.244384,-0.039981,-1.50,1,414.10
84786,0.05,-0.0,3.1,60.3,0.8641,-0.0237,0.0148,-0.5023,0.05,-0.07,-0.20,43.244384,-0.039981,-1.50,1,414.10
84786,0.05,-0.0,3.1,60.3,0.8641,-0.0237,0.0148,-0.5023,0.05,-0.07,-0.20,43.244384,-0.039981,-1.50,1,414.10
84786,0.05,-0.0,3.1,60.3,0.8641,-0.0237,0.0148,-0.5023,0.05,-0.07,-0.20,43.244384,-0.039981,-1.50,1,414.10
84786,0.05,-0.0,3.1,60.3,0.8641,-0.0237,0.0148,-0.5023,0.05,-0.07,-0.20,43.244384,-0.039981,-1.50,1,414.10
84799,0.05,-0.0,3.1,60.3,0.8641,-0.0238,0.0148,-0.5023,0.05,-0.11,-0.17,43.244384,-0.039981,-1.50,1,414.10
84799,0.05,-0.0,3.1,60.3,0.8641,-0.0238,0.0148,-0.5023,0.05,-0.11,-0.17,43.244384,-0.039981,-1.50,1,414.10
84799,0.05,-0.0,3.1,60.3,0.8641,-0.0238,0.0148,-0.5023,0.05,-0.11,-0.17,43.244384,-0.039981,-1.50,1,414.10
84799,0.05,-0.0,3.1,60.3,0.8641,-0.0238,0.0148,-0.5023,0.05,-0.11,-0.17,43.244384,-0.039981,-1.50,1,414.10
84799,0.05,-0.0,3.1,60.3,0.8641,-0.0238,0.0148,-0.5023,0.05,-0.11,-0.17,43.244384,-0.039981,-1.50,1,414.10
84811,0.05,-0.0,3.1,60.3,0.8641,-0.0238,0.0147,-0.5024,0.01,-0.07,-0.07,43.244384,-0.039981,-1.50,1,414.10
84811,0.05,-0.0,3.1,60.3,0.8641,-0.0238,0.0147,-0.5024,0.01,-0.07,-0.07,43.244384,-0.039981,-1.50,1,414.10
84811,0.05,-0.0,3.1,60.3,0.8641,-0.0238,0.0147,-0.5024,0.01,-0.07,-0.07,43.244384,-0.039981,-1.50,1,414.10
84811,0.05,-0.0,3.1,60.3,0.8641,-0.0238,0.0147,-0.5024,0.01,-0.07,-0.07,43.244384,-0.039981,-1.50,1,414.10
84811,0.05,-0.0,3.1,60.3,0.8641,-0.0238,0.0147,-0.5024,0.01,-0.07,-0.07,43.244384,-0.039981,-1.50,1,414.10
84824,0.05,-0.0,3.1,60.3,0.8641,-0.0239,0.0146,-0.5024,0.00,-0.02,-0.05,43.244384,-0.039981,-1.55,1,414.10
84824,0.05,-0.0,3.1,60.3,0.8641,-0.0239,0.0146,-0.5024,0.00,-0.02,-0.05,43.244384,-0.039981,-1.55,1,414.10
84824,0.05,-0.0,3.1,60.3,0.8641,-0.0239,0.0146,-0.5024,0.00,-0.02,-0.05,43.244384,-0.039981,-1.55,1,414.10
84824,0.05,-0.0,3.1,60.3,0.8641,-0.0239,0.0146,-0.5024,0.00,-0.02,-0.05,43.244384,-0.039981,-1.55,1,414.10
84824,0.05,-0.0,3.1,60.3,0.8641,-0.0239,0.0146,-0.5024,0.00,-0.02,-0.05,43.244384,-0.039981,-1.55,1,414.10
84837,0.05,-0.0,3.1,60.3,0.8641,-0.0239,0.0145,-0.5024,0.05,0.03,-0.11,43.244384,-0.039981,-1.55,1,414.10
84837,0.05,-0.0,3.1,60.3,0.8641,-0.0239,0.0145,-0.5024,0.05,0.03,-0.11,43.244384,-0.039981,-1.55,1,414.10
84837,0.05,-0.0,3.1,60.3,0.8641,-0.0239,0.0145,-0.5024,0.05,0.03,-0.11,43.244384,-0.039981,-1.55,1,414.10
84837,0.05,-0.0,3.1,60.3,0.8641,-0.0239,0.0145,-0.5024,0.05,0.03,-0.11,43.244384,-0.039981,-1.55,1,414.10
84837,0.05,-0.0,3.1,60.3,0.8641,-0.0239,0.0145,-0.5024,0.05,0.03,-0.11,43.244384,-0.039981,-1.55,1,414.10
84850,0.05,-0.0,3.1,60.3,0.8641,-0.0239,0.0145,-0.5024,0.05,0.05,-0.12,43.244384,-0.039981,-1.55,1,414.10
84850,0.05,-0.0,3.1,60.3,0.8641,-0.0239,0.0145,-0.5024,0.05,0.05,-0.12,43.244384,-0.039981,-1.55,1,414.10
84850,0.05,-0.0,3.1,60.3,0.8641,-0.0239,0.0145,-0.5024,0.05,0.05,-0.12,43.244384,-0.039981,-1.55,1,414.10
84850,0.05,-0.0,3.1,60.3,0.8641,-0.0239,0.0145,-0.5024,0.05,0.05,-0.12,43.244384,-0.039981,-1.55,1,414.10
84850,0.05,-0.0,3.1,60.3,0.8641,-0.0239,0.0145,-0.5024,0.05,0.05,-0.12,43.244384,-0.039981,-1.55,1,414.10
84862,0.05,-0.0,3.1,60.3,0.8641,-0.0239,0.0145,-0.5023,0.05,0.05,-0.12,43.244384,-0.039981,-1.55,1,414.10
84862,0.05,-0.0,3.1,60.3,0.8641,-0.0239,0.0145,-0.5023,0.05,0.05,-0.12,43.244384,-0.039981,-1.55,1,414.10
84862,0.05,-0.0,3.1,60.3,0.8641,-0.0239,0.0145,-0.5023,0.05,0.05,-0.12,43.244384,-0.039981,-1.55,1,414.10
84862,0.05,-0.0,3.1,60.3,0.8641,-0.0239,0.0145,-0.5023,0.05,0.05,-0.12,43.244384,-0.039981,-1.55,1,414.10
84862,0.05,-0.0,3.1,60.3,0.8641,-0.0239,0.0145,-0.5023,0.05,0.05,-0.12,43.244384,-0.039981,-1.55,1,414.10
84875,0.05,-0.0,3.1,60.3,0.8642,-0.0239,0.0145,-0.5022,0.05,0.05,-0.03,43.244384,-0.039981,-1.62,1,414.10
84875,0.05,-0.0,3.1,60.3,0.8642,-0.0239,0.0145,-0.5022,0.05,0.05,-0.03,43.244384,-0.039981,-1.62,1,414.10
84875,0.05,-0.0,3.1,60.3,0.8642,-0.0239,0.0145,-0.5022,0.05,0.05,-0.03,43.244384,-0.039981,-1.62,1,414.10
84875,0.05,-0.0,3.1,60.3,0.8642,-0.0239,0.0145,-0.5022,0.05,0.05,-0.03,43.244384,-0.039981,-1.62,1,414.10
84875,0.05,-0.0,3.1,60.3,0.8642,-0.0239,0.0145,-0.5022,0.05,0.05,-0.03,43.244384,-0.039981,-1.62,1,414.10
84888,0.05,-0.0,3.1,60.3,0.8642,-0.0239,0.0145,-0.5022,0.05,0.03,-0.02,43.244384,-0.039981,-1.62,1,414.10
84888,0.05,-0.0,3.1,60.3,0.8642,-0.0239,0.0145,-0.5022,0.05,0.03,-0.02,43.244384,-0.039981,-1.62,1,414.10
84888,0.05,-0.0,3.1,60.3,0.8642,-0.0239,0.0145,-0.5022,0.05,0.03,-0.02,43.244384,-0.039981,-1.62,1,414.10
84888,0.05,-0.0,3.1,60.3,0.8642,-0.0239,0.0145,-0.5022,0.05,0.03,-0.02,43.244384,-0.039981,-1.62,1,414.10
84888,0.05,-0.0,3.1,60.3,0.8642,-0.0239,0.0145,-0.5022,0.05,0.03,-0.02,43.244384,-0.039981,-1.62,1,414.10
84901,0.05,-0.0,3.1,60.3,0.8642,-0.0239,0.0146,-0.5022,0.07,0.02,0.00,43.244384,-0.039981,-1.62,1,414.10
84901,0.05,-0.0,3.1,60.3,0.8642,-0.0239,0.0146,-0.5022,0.07,0.02,0.00,43.244384,-0.039981,-1.62,1,414.10
84901,0.05,-0.0,3.1,60.3,0.8642,-0.0239,0.0146,-0.5022,0.07,0.02,0.00,43.244384,-0.039981,-1.62,1,414.10
84901,0.05,-0.0,3.1,60.3,0.8642,-0.0239,0.0146,-0.5022,0.07,0.02,0.00,43.244384,-0.039981,-1.62,1,414.10
84901,0.05,-0.0,3.1,60.3,0.8642,-0.0239,0.0146,-0.5022,0.07,0.02,0.00,43.244384,-0.039981,-1.62,1,414.10
84913,0.05,-0.0,3.1,60.3,0.8642,-0.0238,0.0148,-0.5022,0.10,-0.01,-0.01,43.244384,-0.039981,-1.62,1,414.10
84913,0.05,-0.0,3.1,60.3,0.8642,-0.0238,0.0148,-0.5022,0.10,-0.01,-0.01,43.244384,-0.039981,-1.62,1,414.10
84913,0.05,-0.0,3.1,60.3,0.8642,-0.0238,0.0148,-0.5022,0.10,-0.01,-0.01,43.244384,-0.039981,-1.62,1,414.10
84913,0.05,-0.0,3.1,60.3,0.8642,-0.0238,0.0148,-0.5022,0.10,-0.01,-0.01,43.244384,-0.039981,-1.62,1,414.10
84913,0.05,-0.0,3.1,60.3,0.8642,-0.0238,0.0148,-0.5022,0.10,-0.01,-0.01,43.244384,-0.039981,-1.62,1,414.10
84926,0.05,-0.0,3.1,60.3,0.8642,-0.0237,0.0149,-0.5022,0.11,0.00,-0.02,43.244384,-0.039981,-1.69,1,414.00
84926,0.05,-0.0,3.1,60.3,0.8642,-0.0237,0.0149,-0.5022,0.11,0.00,-0.02,43.244384,-0.039981,-1.69,1,414.00
84926,0.05,-0.0,3.1,60.3,0.8642,-0.0237,0.0149,-0.5022,0.11,0.00,-0.02,43.244384,-0.039981,-1.69,1,414.00
84926,0.05,-0.0,3.1,60.3,0.8642,-0.0237,0.0149,-0.5022,0.11,0.00,-0.02,43.244384,-0.039981,-1.69,1,414.00
84926,0.05,-0.0,3.1,60.3,0.8642,-0.0237,0.0149,-0.5022,0.11,0.00,-0.02,43.244384,-0.039981,-1.69,1,414.00
84939,0.05,-0.1,3.1,60.3,0.8642,-0.0233,0.0151,-0.5022,0.11,0.00,0.00,43.244384,-0.039981,-1.69,1,414.00
84939,0.05,-0.1,3.1,60.3,0.8642,-0.0233,0.0151,-0.5022,0.11,0.00,0.00,43.244384,-0.039981,-1.69,1,414.00
84939,0.05,-0.1,3.1,60.3,0.8642,-0.0233,0.0151,-0.5022,0.11,0.00,0.00,43.244384,-0.039981,-1.69,1,414.00
84939,0.05,-0.1,3.1,60.3,0.8642,-0.0233,0.0151,-0.5022,0.11,0.00,0.00,43.244384,-0.039981,-1.69,1,414.00
84939,0.05,-0.1,3.1,60.3,0.8642,-0.0233,0.0151,-0.5022,0.11,0.00,0.00,43.244384,-0.039981,-1.69,1,414.00
84952,0.05,-0.1,3.1,60.3,0.8642,-0.0232,0.0151,-0.5022,0.05,-0.05,-0.05,43.244384,-0.039981,-1.69,1,414.00
84952,0.07,-0.1,3.1,60.3,0.8642,-0.0232,0.0151,-0.5022,0.05,-0.05,-0.05,43.244384,-0.039981,-1.69,1,414.00
84952,0.07,-0.1,3.1,60.3,0.8642,-0.0232,0.0151,-0.5022,0.05,-0.05,-0.05,43.244384,-0.039981,-1.69,1,414.00
84952,0.07,-0.1,3.1,60.3,0.8642,-0.0232,0.0151,-0.5022,0.05,-0.05,-0.05,43.244384,-0.039981,-1.69,1,414.00
84952,0.05,-0.1,3.1,60.3,0.8642,-0.0232,0.0151,-0.5022,0.05,-0.05,-0.05,43.244384,-0.039981,-1.69,1,414.00
84965,0.05,-0.1,3.1,60.3,0.8642,-0.0231,0.0151,-0.5022,0.05,-0.05,-0.11,43.244384,-0.039981,-1.69,1,414.00
84965,0.05,-0.1,3.1,60.3,0.8642,-0.0231,0.0151,-0.5022,0.05,-0.05,-0.11,43.244384,-0.039981,-1.69,1,414.00
84965,0.05,-0.1,3.1,60.3,0.8642,-0.0231,0.0151,-0.5022,0.05,-0.05,-0.11,43.244384,-0.039981,-1.69,1,414.00
84965,0.05,-0.1,3.1,60.3,0.8642,-0.0231,0.0151,-0.5022,0.05,-0.05,-0.11,43.244384,-0.039981,-1.69,1,414.00
84965,0.05,-0.1,3.1,60.3,0.8642,-0.0231,0.0151,-0.5022,0.05,-0.05,-0.11,43.244384,-0.039981,-1.69,1,414.00
84977,0.07,-0.1,3.1,60.3,0.8642,-0.0227,0.0151,-0.5023,0.03,-0.01,-0.22,43.244384,-0.039981,-1.77,1,414.00
84977,0.07,-0.1,3.1,60.3,0.8642,-0.0227,0.0151,-0.5023,0.03,-0.01,-0.22,43.244384,-0.039981,-1.77,1,414.00
84977,0.07,-0.1,3.1,60.3,0.8642,-0.0227,0.0151,-0.5023,0.03,-0.01,-0.22,43.244384,-0.039981,-1.77,1,414.00
84977,0.07,-0.1,3.1,60.3,0.8642,-0.0227,0.0151,-0.5023,0.03,-0.01,-0.22,43.244384,-0.039981,-1.77,1,414.00
84977,0.07,-0.1,3.1,60.3,0.8642,-0.0227,0.0151,-0.5023,0.03,-0.01,-0.22,43.244384,-0.039981,-1.77,1,414.00
84990,0.07,-0.1,3.0,60.3,0.8642,-0.0224,0.0151,-0.5023,0.07,-0.00,-0.22,43.244384,-0.039981,-1.77,1,414.00
84990,0.07,-0.1,3.0,60.3,0.8642,-0.0224,0.0151,-0.5023,0.07,-0.00,-0.22,43.244384,-0.039981,-1.77,1,414.00
84990,0.07,-0.1,3.0,60.3,0.8642,-0.0224,0.0151,-0.5023,0.07,-0.00,-0.22,43.244384,-0.039981,-1.77,1,414.00
84990,0.07,-0.1,3.0,60.3,0.8642,-0.0224,0.0151,-0.5023,0.07,-0.00,-0.22,43.244384,-0.039981,-1.77,1,414.00
84990,0.07,-0.1,3.0,60.3,0.8642,-0.0224,0.0151,-0.5023,0.07,-0.00,-0.22,43.244384,-0.039981,-1.77,1,414.00
85003,0.07,-0.1,3.0,60.3,0.8642,-0.0222,0.0152,-0.5023,0.12,-0.01,-0.25,43.244384,-0.039981,-1.77,1,414.10
85003,0.07,-0.1,3.0,60.3,0.8642,-0.0222,0.0152,-0.5023,0.12,-0.01,-0.25,43.244384,-0.039981,-1.77,1,414.10
85003,0.07,-0.1,3.0,60.3,0.8642,-0.0222,0.0152,-0.5023,0.12,-0.01,-0.25,43.244384,-0.039981,-1.77,1,414.10
85003,0.07,-0.1,3.0,60.3,0.8642,-0.0222,0.0152,-0.5023,0.12,-0.01,-0.25,43.244384,-0.039981,-1.77,1,414.10
85003,0.07,-0.1,3.0,60.3,0.8642,-0.0222,0.0152,-0.5023,0.12,-0.01,-0.25,43.244384,-0.039981,-1.77,1,414.10
85015,0.07,-0.1,3.0,60.3,0.8642,-0.0220,0.0153,-0.5023,0.11,-0.07,-0.22,43.244384,-0.039981,-1.77,1,414.10
85015,0.07,-0.1,3.0,60.3,0.8642,-0.0220,0.0153,-0.5023,0.11,-0.07,-0.22,43.244384,-0.039981,-1.77,1,414.10
85015,0.07,-0.1,3.0,60.3,0.8642,-0.0220,0.0153,-0.5023,0.11,-0.07,-0.22,43.244384,-0.039981,-1.77,1,414.10
85015,0.07,-0.1,3.0,60.3,0.8642,-0.0220,0.0153,-0.5023,0.11,-0.07,-0.22,43.244384,-0.039981,-1.77,1,414.10
85015,0.07,-0.1,3.0,60.3,0.8642,-0.0220,0.0153,-0.5023,0.11,-0.07,-0.22,43.244384,-0.039981,-1.77,1,414.10
85028,0.07,-0.2,3.0,60.3,0.8642,-0.0218,0.0155,-0.5023,0.07,-0.07,-0.11,43.244384,-0.039981,-1.86,1,414.10
85028,0.07,-0.2,3.0,60.3,0.8642,-0.0218,0.0155,-0.5023,0.07,-0.07,-0.11,43.244384,-0.039981,-1.86,1,414.10
85028,0.07,-0.2,3.0,60.3,0.8642,-0.0218,0.0155,-0.5023,0.07,-0.07,-0.11,43.244384,-0.039981,-1.86,1,414.10
85028,0.07,-0.2,3.0,60.3,0.8642,-0.0218,0.0155,-0.5023,0.07,-0.07,-0.11,43.244384,-0.039981,-1.86,1,414.10
85028,0.07,-0.2,3.0,60.3,0.8642,-0.0218,0.0155,-0.5023,0.07,-0.07,-0.11,43.244384,-0.039981,-1.86,1,414.10
85041,0.07,-0.2,3.0,60.3,0.8642,-0.0217,0.0156,-0.5023,0.11,-0.01,-0.10,43.244384,-0.039981,-1.86,1,414.10
85041,0.07,-0.2,3.0,60.3,0.8642,-0.0217,0.0156,-0.5023,0.11,-0.01,-0.10,43.244384,-0.039981,-1.86,1,414.10
85041,0.07,-0.2,3.0,60.3,0.8642,-0.0217,0.0156,-0.5023,0.11,-0.01,-0.10,43.244384,-0.039981,-1.86,1,414.10
85041,0.07,-0.2,3.0,60.3,0.8642,-0.0217,0.0156,-0.5023,0.11,-0.01,-0.10,43.244384,-0.039981,-1.86,1,414.10
85041,0.07,-0.2,3.0,60.3,0.8642,-0.0217,0.0156,-0.5023,0.11,-0.01,-0.10,43.244384,-0.039981,-1.86,1,414.10
85054,0.07,-0.3,3.0,60.3,0.8642,-0.0217,0.0158,-0.5023,0.09,0.00,-0.07,43.244384,-0.039981,-1.86,1,414.10
85054,0.07,-0.3,3.0,60.3,0.8642,-0.0217,0.0158,-0.5023,0.09,0.00,-0.07,43.244384,-0.039981,-1.86,1,414.10
85054,0.07,-0.3,3.0,60.3,0.8642,-0.0217,0.0158,-0.5023,0.09,0.00,-0.07,43.244384,-0.039981,-1.86,1,414.10
85054,0.07,-0.3,3.0,60.3,0.8642,-0.0217,0.0158,-0.5023,0.09,0.00,-0.07,43.244384,-0.039981,-1.86,1,414.10
85054,0.07,-0.3,3.0,60.3,0.8642,-0.0217,0.0158,-0.5023,0.09,0.00,-0.07,43.244384,-0.039981,-1.86,1,414.10
85067,0.07,-0.3,3.0,60.3,0.8642,-0.0214,0.0161,-0.5023,0.11,0.01,-0.05,43.244384,-0.039981,-1.86,1,414.10
85067,0.07,-0.3,3.0,60.3,0.8642,-0.0214,0.0161,-0.5023,0.11,0.01,-0.05,43.244384,-0.039981,-1.86,1,414.10
85067,0.07,-0.3,3.0,60.3,0.8642,-0.0214,0.0161,-0.5023,0.11,0.01,-0.05,43.244384,-0.039981,-1.86,1,414.10
85067,0.07,-0.3,3.0,60.3,0.8642,-0.0214,0.0161,-0.5023,0.11,0.01,-0.05,43.244384,-0.039981,-1.86,1,414.10
85067,0.07,-0.3,3.0,60.3,0.8642,-0.0214,0.0161,-0.5023,0.11,0.01,-0.05,43.244384,-0.039981,-1.86,1,414.10
85079,0.07,-0.3,3.0,60.3,0.8642,-0.0212,0.0162,-0.5023,0.12,0.00,-0.05,43.244384,-0.039981,-1.97,1,414.10
85079,0.07,-0.3,3.0,60.3,0.8642,-0.0212,0.0162,-0.5023,0.12,0.00,-0.05,43.244384,-0.039981,-1.97,1,414.10
85079,0.07,-0.3,3.0,60.3,0.8642,-0.0212,0.0162,-0.5023,0.12,0.00,-0.05,43.244384,-0.039981,-1.97,1,414.10
85079,0.07,-0.3,3.0,60.3,0.8642,-0.0212,0.0162,-0.5023,0.12,0.00,-0.05,43.244384,-0.039981,-1.97,1,414.10
85079,0.07,-0.3,3.0,60.3,0.8642,-0.0212,0.0162,-0.5023,0.12,0.00,-0.05,43.244384,-0.039981,-1.97,1,414.10
85092,0.07,-0.3,3.0,60.3,0.8642,-0.0210,0.0163,-0.5023,0.05,0.00,-0.03,43.244384,-0.039981,-1.97,1,414.00
85092,0.07,-0.3,3.0,60.3,0.8642,-0.0210,0.0163,-0.5023,0.05,0.00,-0.03,43.244384,-0.039981,-1.97,1,414.00
85092,0.07,-0.3,3.0,60.3,0.8642,-0.0210,0.0163,-0.5023,0.05,0.00,-0.03,43.244384,-0.039981,-1.97,1,414.00
85092,0.07,-0.3,3.0,60.3,0.8642,-0.0210,0.0163,-0.5023,0.05,0.00,-0.03,43.244384,-0.039981,-1.97,1,414.00
85092,0.07,-0.3,3.0,60.3,0.8642,-0.0210,0.0163,-0.5023,0.05,0.00,-0.03,43.244384,-0.039981,-1.97,1,414.00
85105,0.07,-0.3,3.0,60.3,0.8642,-0.0209,0.0164,-0.5023,0.00,-0.10,0.11,43.244384,-0.039981,-1.97,1,414.00
85105,0.07,-0.3,3.0,60.3,0.8642,-0.0209,0.0164,-0.5023,0.00,-0.10,0.11,43.244384,-0.039981,-1.97,1,414.00
85105,0.07,-0.3,3.0,60.3,0.8642,-0.0209,0.0164,-0.5023,0.00,-0.10,0.11,43.244384,-0.039981,-1.97,1,414.00
85105,0.07,-0.3,3.0,60.3,0.8642,-0.0209,0.0164,-0.5023,0.00,-0.10,0.11,43.244384,-0.039981,-1.97,1,414.00
85105,0.07,-0.3,3.0,60.3,0.8642,-0.0209,0.0164,-0.5023,0.00,-0.10,0.11,43.244384,-0.039981,-1.97,1,414.00
85117,0.07,-0.3,2.9,60.3,0.8643,-0.0207,0.0163,-0.5022,-0.11,-0.15,0.41,43.244384,-0.039981,-1.97,1,414.00
85117,0.07,-0.3,2.9,60.3,0.8643,-0.0207,0.0163,-0.5022,-0.11,-0.15,0.41,43.244384,-0.039981,-1.97,1,414.00
85117,0.07,-0.3,2.9,60.3,0.8643,-0.0207,0.0163,-0.5022,-0.11,-0.15,0.41,43.244384,-0.039981,-1.97,1,414.00
85117,0.07,-0.3,2.9,60.3,0.8643,-0.0207,0.0163,-0.5022,-0.11,-0.15,0.41,43.244384,-0.039981,-1.97,1,414.00
85117,0.07,-0.3,2.9,60.3,0.8643,-0.0207,0.0163,-0.5022,-0.11,-0.15,0.41,43.244384,-0.039981,-1.97,1,414.00
85130,0.07,-0.3,2.9,60.2,0.8643,-0.0206,0.0162,-0.5021,-0.15,-0.17,0.36,43.244384,-0.039981,-2.09,1,414.00
85130,0.07,-0.3,2.9,60.2,0.8643,-0.0206,0.0162,-0.5021,-0.15,-0.17,0.36,43.244384,-0.039981,-2.09,1,414.00
85130,0.07,-0.3,2.9,60.2,0.8643,-0.0206,0.0162,-0.5021,-0.15,-0.17,0.36,43.244384,-0.039981,-2.09,1,414.00
85130,0.07,-0.3,2.9,60.2,0.8643,-0.0206,0.0162,-0.5021,-0.15,-0.17,0.36,43.244384,-0.039981,-2.09,1,414.00
85130,0.07,-0.3,2.9,60.2,0.8643,-0.0206,0.0162,-0.5021,-0.15,-0.17,0.36,43.244384,-0.039981,-2.09,1,414.00
85143,0.07,-0.3,2.9,60.2,0.8644,-0.0205,0.0161,-0.5020,0.03,-0.13,0.36,43.244384,-0.039981,-2.09,1,414.00
85143,0.07,-0.3,2.9,60.2,0.8644,-0.0205,0.0161,-0.5020,0.03,-0.13,0.36,43.244384,-0.039981,-2.09,1,414.00
85143,0.07,-0.3,2.9,60.2,0.8644,-0.0205,0.0161,-0.5020,0.03,-0.13,0.36,43.244384,-0.039981,-2.09,1,414.00
85143,0.07,-0.3,2.9,60.2,0.8644,-0.0205,0.0161,-0.5020,0.03,-0.13,0.36,43.244384,-0.039981,-2.09,1,414.00
85143,0.07,-0.3,2.9,60.2,0.8644,-0.0205,0.0161,-0.5020,0.03,-0.13,0.36,43.244384,-0.039981,-2.09,1,414.00
85156,0.07,-0.3,2.8,60.2,0.8645,-0.0202,0.0159,-0.5019,0.05,-0.07,0.47,43.244384,-0.039981,-2.09,1,414.00
85156,0.07,-0.3,2.8,60.2,0.8645,-0.0202,0.0159,-0.5019,0.05,-0.07,0.47,43.244384,-0.039981,-2.09,1,414.00
85156,0.07,-0.3,2.8,60.2,0.8645,-0.0202,0.0159,-0.5019,0.05,-0.07,0.47,43.244384,-0.039981,-2.09,1,414.00
85156,0.07,-0.3,2.8,60.2,0.8645,-0.0202,0.0159,-0.5019,0.05,-0.07,0.47,43.244384,-0.039981,-2.09,1,414.00
85156,0.07,-0.3,2.8,60.2,0.8645,-0.0202,0.0159,-0.5019,0.05,-0.07,0.47,43.244384,-0.039981,-2.09,1,414.00
85168,0.07,-0.3,2.8,60.1,0.8648,-0.0194,0.0153,-0.5015,0.13,0.01,0.60,43.244384,-0.039981,-2.09,1,414.00
85168,0.07,-0.3,2.8,60.1,0.8648,-0.0194,0.0153,-0.5015,0.13,0.01,0.60,43.244384,-0.039981,-2.09,1,414.00
85168,0.07,-0.3,2.8,60.1,0.8648,-0.0194,0.0153,-0.5015,0.13,0.01,0.60,43.244384,-0.039981,-2.09,1,414.00
85168,0.07,-0.3,2.8,60.1,0.8648,-0.0194,0.0153,-0.5015,0.13,0.01,0.60,43.244384,-0.039981,-2.09,1,414.00
85168,0.07,-0.3,2.8,60.1,0.8648,-0.0194,0.0153,-0.5015,0.13,0.01,0.60,43.244384,-0.039981,-2.09,1,414.00
85181,0.07,-0.3,2.6,60.1,0.8650,-0.0189,0.0150,-0.5011,-0.15,-0.10,0.46,43.244384,-0.039981,-2.20,1,414.10
85181,0.07,-0.3,2.6,60.1,0.8650,-0.0189,0.0150,-0.5011,-0.15,-0.10,0.46,43.244384,-0.039981,-2.20,1,414.10
85181,0.07,-0.3,2.6,60.1,0.8650,-0.0189,0.0150,-0.5011,-0.15,-0.10,0.46,43.244384,-0.039981,-2.20,1,414.10
85181,0.07,-0.3,2.6,60.1,0.8650,-0.0189,0.0150,-0.5011,-0.15,-0.10,0.46,43.244384,-0.039981,-2.20,1,414.10
85181,0.07,-0.3,2.6,60.1,0.8650,-0.0189,0.0150,-0.5011,-0.15,-0.10,0.46,43.244384,-0.039981,-2.20,1,414.10
85194,0.07,-0.3,2.6,60.0,0.8652,-0.0184,0.0145,-0.5006,-0.01,0.05,0.50,43.244384,-0.039981,-2.20,1,414.10
85194,0.07,-0.3,2.6,60.0,0.8652,-0.0184,0.0145,-0.5006,-0.01,0.05,0.50,43.244384,-0.039981,-2.20,1,414.10
85194,0.07,-0.3,2.6,60.0,0.8652,-0.0184,0.0145,-0.5006,-0.01,0.05,0.50,43.244384,-0.039981,-2.20,1,414.10
85194,0.07,-0.3,2.6,60.0,0.8652,-0.0184,0.0145,-0.5006,-0.01,0.05,0.50,43.244384,-0.039981,-2.20,1,414.10
85194,0.07,-0.3,2.6,60.0,0.8652,-0.0184,0.0145,-0.5006,-0.01,0.05,0.50,43.244384,-0.039981,-2.20,1,414.10
85207,0.07,-0.3,2.5,60.0,0.8655,-0.0178,0.0139,-0.5003,0.10,0.10,0.40,43.244384,-0.039981,-2.20,1,414.10
85207,0.07,-0.3,2.5,60.0,0.8655,-0.0178,0.0139,-0.5003,0.10,0.10,0.40,43.244384,-0.039981,-2.20,1,414.10
85207,0.07,-0.3,2.5,60.0,0.8655,-0.0178,0.0139,-0.5003,0.10,0.10,0.40,43.244384,-0.039981,-2.20,1,414.10
85207,0.07,-0.3,2.5,60.0,0.8655,-0.0178,0.0139,-0.5003,0.10,0.10,0.40,43.244384,-0.039981,-2.20,1,414.10
85207,0.07,-0.3,2.5,60.0,0.8655,-0.0178,0.0139,-0.5003,0.10,0.10,0.40,43.244384,-0.039981,-2.20,1,414.10
85220,0.07,-0.3,2.2,59.9,0.8660,-0.0157,0.0130,-0.4995,-1.32,1.38,0.23,43.244384,-0.039981,-2.20,1,414.10
85220,0.07,-0.3,2.2,59.9,0.8660,-0.0157,0.0130,-0.4995,-1.32,1.38,0.23,43.244384,-0.039981,-2.20,1,414.10
85220,0.07,-0.3,2.2,59.9,0.8660,-0.0157,0.0130,-0.4995,-1.32,1.38,0.23,43.244384,-0.039981,-2.20,1,414.10
85220,0.07,-0.3,2.2,59.9,0.8660,-0.0157,0.0130,-0.4995,-1.32,1.38,0.23,43.244384,-0.039981,-2.20,1,414.10
85220,0.07,-0.3,2.2,59.9,0.8660,-0.0157,0.0130,-0.4995,-1.32,1.38,0.23,43.244384,-0.039981,-2.20,1,414.10
85232,0.07,-0.2,2.0,59.8,0.8662,-0.0140,0.0111,-0.4992,0.75,-0.11,1.25,43.244384,-0.039981,-2.34,1,414.10
85232,0.07,-0.2,2.0,59.8,0.8662,-0.0140,0.0111,-0.4992,0.75,-0.11,1.25,43.244384,-0.039981,-2.34,1,414.10
85232,0.07,-0.2,2.0,59.8,0.8662,-0.0140,0.0111,-0.4992,0.75,-0.11,1.25,43.244384,-0.039981,-2.34,1,414.10
85232,0.07,-0.2,2.0,59.8,0.8662,-0.0140,0.0111,-0.4992,0.75,-0.11,1.25,43.244384,-0.039981,-2.34,1,414.10
85232,0.07,-0.2,2.0,59.8,0.8662,-0.0140,0.0111,-0.4992,0.75,-0.11,1.25,43.244384,-0.039981,-2.34,1,414.10
85245,0.07,-0.1,1.9,59.7,0.8668,-0.0138,0.0101,-0.4982,0.22,-0.03,0.37,43.244384,-0.039981,-2.34,1,414.10
85245,0.07,-0.1,1.9,59.7,0.8668,-0.0138,0.0101,-0.4982,0.22,-0.03,0.37,43.244384,-0.039981,-2.34,1,414.10
85245,0.07,-0.1,1.9,59.7,0.8668,-0.0138,0.0101,-0.4982,0.22,-0.03,0.37,43.244384,-0.039981,-2.34,1,414.10
85245,0.07,-0.1,1.9,59.7,0.8668,-0.0138,0.0101,-0.4982,0.22,-0.03,0.37,43.244384,-0.039981,-2.34,1,414.10
85245,0.09,-0.1,1.9,59.7,0.8668,-0.0138,0.0101,-0.4982,0.22,-0.03,0.37,43.244384,-0.039981,-2.34,1,414.10
85258,0.09,-0.1,1.8,59.6,0.8671,-0.0136,0.0101,-0.4976,0.30,-0.12,-0.63,43.244384,-0.039981,-2.34,1,414.10
85258,0.09,-0.1,1.8,59.6,0.8671,-0.0136,0.0101,-0.4976,0.30,-0.12,-0.63,43.244384,-0.039981,-2.34,1,414.10
85258,0.09,-0.1,1.8,59.6,0.8671,-0.0136,0.0101,-0.4976,0.30,-0.12,-0.63,43.244384,-0.039981,-2.34,1,414.10
85258,0.09,-0.1,1.8,59.6,0.8671,-0.0136,0.0101,-0.4976,0.30,-0.12,-0.63,43.244384,-0.039981,-2.34,1,414.10
85258,0.09,-0.1,1.8,59.6,0.8671,-0.0136,0.0101,-0.4976,0.30,-0.12,-0.63,43.244384,-0.039981,-2.34,1,414.10
85271,0.09,-0.3,1.6,59.4,0.8682,-0.0110,0.0101,-0.4959,-0.18,-0.17,-0.07,43.244384,-0.039981,-2.34,1,414.10
85271,0.09,-0.3,1.6,59.4,0.8682,-0.0110,0.0101,-0.4959,-0.18,-0.17,-0.07,43.244384,-0.039981,-2.34,1,414.10
85271,0.09,-0.3,1.6,59.4,0.8682,-0.0110,0.0101,-0.4959,-0.18,-0.17,-0.07,43.244384,-0.039981,-2.34,1,414.10
85271,0.09,-0.3,1.6,59.4,0.8682,-0.0110,0.0101,-0.4959,-0.18,-0.17,-0.07,43.244384,-0.039981,-2.34,1,414.10
85271,0.09,-0.3,1.6,59.4,0.8682,-0.0110,0.0101,-0.4959,-0.18,-0.17,-0.07,43.244384,-0.039981,-2.34,1,414.10
85283,0.10,-0.4,1.5,59.3,0.8687,-0.0099,0.0106,-0.4951,-0.11,-0.50,-0.43,43.244384,-0.039981,-2.49,1,414.10
85283,0.09,-0.4,1.5,59.3,0.8687,-0.0099,0.0106,-0.4951,-0.11,-0.50,-0.43,43.244384,-0.039981,-2.49,1,414.10
85283,0.09,-0.4,1.5,59.3,0.8687,-0.0099,0.0106,-0.4951,-0.11,-0.50,-0.43,43.244384,-0.039981,-2.49,1,414.10
85283,0.09,-0.4,1.5,59.3,0.8687,-0.0099,0.0106,-0.4951,-0.11,-0.50,-0.43,43.244384,-0.039981,-2.49,1,414.10
85283,0.09,-0.4,1.5,59.3,0.8687,-0.0099,0.0106,-0.4951,-0.11,-0.50,-0.43,43.244384,-0.039981,-2.49,1,414.10
85296,0.09,-0.5,1.5,59.2,0.8690,-0.0089,0.0109,-0.4945,0.11,-0.20,-0.22,43.244384,-0.039981,-2.49,1,414.10
85296,0.09,-0.5,1.5,59.2,0.8690,-0.0089,0.0109,-0.4945,0.11,-0.20,-0.22,43.244384,-0.039981,-2.49,1,414.10
85296,0.09,-0.5,1.5,59.2,0.8690,-0.0089,0.0109,-0.4945,0.11,-0.20,-0.22,43.244384,-0.039981,-2.49,1,414.10
85296,0.09,-0.5,1.5,59.2,0.8690,-0.0089,0.0109,-0.4945,0.11,-0.20,-0.22,43.244384,-0.039981,-2.49,1,414.10
85296,0.09,-0.5,1.5,59.2,0.8690,-0.0089,0.0109,-0.4945,0.11,-0.20,-0.22,43.244384,-0.039981,-2.49,1,414.10
85309,0.09,-0.6,1.3,59.1,0.8694,-0.0079,0.0108,-0.4938,0.18,-0.25,-0.09,43.244384,-0.039981,-2.49,1,414.10
85309,0.09,-0.6,1.3,59.1,0.8694,-0.0079,0.0108,-0.4938,0.18,-0.25,-0.09,43.244384,-0.039981,-2.49,1,414.10
85309,0.09,-0.6,1.3,59.1,0.8694,-0.0079,0.0108,-0.4938,0.18,-0.25,-0.09,43.244384,-0.039981,-2.49,1,414.10
85309,0.10,-0.6,1.3,59.1,0.8694,-0.0079,0.0108,-0.4938,0.18,-0.25,-0.09,43.244384,-0.039981,-2.49,1,414.10
85309,0.10,-0.6,1.3,59.1,0.8694,-0.0079,0.0108,-0.4938,0.18,-0.25,-0.09,43.244384,-0.039981,-2.49,1,414.10
85321,0.10,-0.5,1.2,58.8,0.8706,-0.0068,0.0101,-0.4917,0.07,-0.25,-0.11,43.244384,-0.039981,-2.49,1,414.10
85321,0.10,-0.5,1.2,58.8,0.8706,-0.0068,0.0101,-0.4917,0.07,-0.25,-0.11,43.244384,-0.039981,-2.49,1,414.10
85321,0.10,-0.5,1.2,58.8,0.8706,-0.0068,0.0101,-0.4917,0.07,-0.25,-0.11,43.244384,-0.039981,-2.49,1,414.10
85321,0.10,-0.5,1.2,58.8,0.8706,-0.0068,0.0101,-0.4917,0.07,-0.25,-0.11,43.244384,-0.039981,-2.49,1,414.10
85321,0.10,-0.5,1.2,58.8,0.8706,-0.0068,0.0101,-0.4917,0.07,-0.25,-0.11,43.244384,-0.039981,-2.49,1,414.10
85334,0.10,-0.5,1.1,58.7,0.8712,-0.0064,0.0093,-0.4906,0.25,0.00,-0.27,43.244384,-0.039981,-2.66,1,414.10
85334,0.11,-0.5,1.1,58.7,0.8712,-0.0064,0.0093,-0.4906,0.25,0.00,-0.27,43.244384,-0.039981,-2.66,1,414.10
85334,0.10,-0.5,1.1,58.7,0.8712,-0.0064,0.0093,-0.4906,0.25,0.00,-0.27,43.244384,-0.039981,-2.66,1,414.10
85334,0.11,-0.5,1.1,58.7,0.8712,-0.0064,0.0093,-0.4906,0.25,0.00,-0.27,43.244384,-0.039981,-2.66,1,414.10
85334,0.11,-0.5,1.1,58.7,0.8712,-0.0064,0.0093,-0.4906,0.25,0.00,-0.27,43.244384,-0.039981,-2.66,1,414.10
85347,0.11,-0.5,1.0,58.5,0.8719,-0.0061,0.0085,-0.4895,0.17,-0.07,-0.33,43.244384,-0.039981,-2.66,1,414.10
85347,0.11,-0.5,1.0,58.5,0.8719,-0.0061,0.0085,-0.4895,0.17,-0.07,-0.33,43.244384,-0.039981,-2.66,1,414.10
85347,0.11,-0.5,1.0,58.5,0.8719,-0.0061,0.0085,-0.4895,0.17,-0.07,-0.33,43.244384,-0.039981,-2.66,1,414.10
85347,0.11,-0.5,1.0,58.5,0.8719,-0.0061,0.0085,-0.4895,0.17,-0.07,-0.33,43.244384,-0.039981,-2.66,1,414.10
85347,0.10,-0.5,1.0,58.5,0.8719,-0.0061,0.0085,-0.4895,0.17,-0.07,-0.33,43.244384,-0.039981,-2.66,1,414.10
85360,0.10,-0.3,0.9,58.4,0.8726,-0.0056,0.0075,-0.4881,0.18,0.00,-0.50,43.244384,-0.039981,-2.66,1,414.10
85360,0.10,-0.3,0.9,58.4,0.8726,-0.0056,0.0075,-0.4881,0.18,0.00,-0.50,43.244384,-0.039981,-2.66,1,414.10
85360,0.10,-0.3,0.9,58.4,0.8726,-0.0056,0.0075,-0.4881,0.18,0.00,-0.50,43.244384,-0.039981,-2.66,1,414.10
85360,0.11,-0.3,0.9,58.4,0.8726,-0.0056,0.0075,-0.4881,0.18,0.00,-0.50,43.244384,-0.039981,-2.66,1,414.10
85360,0.10,-0.3,0.9,58.4,0.8726,-0.0056,0.0075,-0.4881,0.18,0.00,-0.50,43.244384,-0.039981,-2.66,1,414.10
85372,0.10,-0.3,0.8,58.2,0.8734,-0.0049,0.0059,-0.4868,0.23,0.02,-0.67,43.244384,-0.039981,-2.66,1,414.10
85372,0.10,-0.3,0.8,58.2,0.8734,-0.0049,0.0059,-0.4868,0.23,0.02,-0.67,43.244384,-0.039981,-2.66,1,414.10
85372,0.10,-0.3,0.8,58.2,0.8734,-0.0049,0.0059,-0.4868,0.23,0.02,-0.67,43.244384,-0.039981,-2.66,1,414.10
85372,0.09,-0.3,0.8,58.2,0.8734,-0.0049,0.0059,-0.4868,0.23,0.02,-0.67,43.244384,-0.039981,-2.66,1,414.10
85372,0.07,-0.3,0.8,58.2,0.8734,-0.0049,0.0059,-0.4868,0.23,0.02,-0.67,43.244384,-0.039981,-2.66,1,414.10
85385,0.07,0.0,0.3,57.8,0.8750,-0.0032,0.0016,-0.4841,0.73,0.27,-0.63,43.244384,-0.039981,-2.82,1,414.10
85385,0.05,0.0,0.3,57.8,0.8750,-0.0032,0.0016,-0.4841,0.73,0.27,-0.63,43.244384,-0.039981,-2.82,1,414.10
85385,0.03,0.0,0.3,57.8,0.8750,-0.0032,0.0016,-0.4841,0.73,0.27,-0.63,43.244384,-0.039981,-2.82,1,414.10
85385,0.01,0.0,0.3,57.8,0.8750,-0.0032,0.0016,-0.4841,0.73,0.27,-0.63,43.244384,-0.039981,-2.82,1,414.10
85385,0.01,0.0,0.3,57.8,0.8750,-0.0032,0.0016,-0.4841,0.73,0.27,-0.63,43.244384,-0.039981,-2.82,1,414.10
85398,0.00,0.1,0.1,57.6,0.8759,-0.0029,-0.0007,-0.4824,0.77,0.23,-0.83,43.244384,-0.039981,-2.82,1,414.10
85398,0.00,0.1,0.1,57.6,0.8759,-0.0029,-0.0007,-0.4824,0.77,0.23,-0.83,43.244384,-0.039981,-2.82,1,414.10
85398,0.00,0.1,0.1,57.6,0.8759,-0.0029,-0.0007,-0.4824,0.77,0.23,-0.83,43.244384,-0.039981,-2.82,1,414.10
85398,0.00,0.1,0.1,57.6,0.8759,-0.0029,-0.0007,-0.4824,0.77,0.23,-0.83,43.244384,-0.039981,-2.82,1,414.10
85398,0.00,0.1,0.1,57.6,0.8759,-0.0029,-0.0007,-0.4824,0.77,0.23,-0.83,43.244384,-0.039981,-2.82,1,414.10
85410,0.00,0.5,0.0,57.5,0.8766,-0.0029,-0.0034,-0.4810,0.77,0.23,-0.83,43.244384,-0.039981,-2.82,1,414.10
85410,0.00,0.5,0.0,57.5,0.8766,-0.0029,-0.0034,-0.4810,0.77,0.23,-0.83,43.244384,-0.039981,-2.82,1,414.10
85410,0.00,0.5,0.0,57.5,0.8766,-0.0029,-0.0034,-0.4810,0.77,0.23,-0.83,43.244384,-0.039981,-2.82,1,414.10
85410,0.00,0.5,0.0,57.5,0.8766,-0.0029,-0.0034,-0.4810,0.77,0.23,-0.83,43.244384,-0.039981,-2.82,1,414.10
85410,0.00,0.5,0.0,57.5,0.8766,-0.0029,-0.0034,-0.4810,0.77,0.23,-0.83,43.244384,-0.039981,-2.82,1,414.10
85423,0.00,0.7,0.0,57.3,0.8772,-0.0032,-0.0062,-0.4799,0.85,0.52,-0.34,43.244384,-0.039981,-2.82,1,414.10
85423,0.00,0.7,0.0,57.3,0.8772,-0.0032,-0.0062,-0.4799,0.85,0.52,-0.34,43.244384,-0.039981,-2.82,1,414.10
85423,0.00,0.7,0.0,57.3,0.8772,-0.0032,-0.0062,-0.4799,0.85,0.52,-0.34,43.244384,-0.039981,-2.82,1,414.10
85423,0.00,0.7,0.0,57.3,0.8772,-0.0032,-0.0062,-0.4799,0.85,0.52,-0.34,43.244384,-0.039981,-2.82,1,414.10
85423,0.00,0.7,0.0,57.3,0.8772,-0.0032,-0.0062,-0.4799,0.85,0.52,-0.34,43.244384,-0.039981,-2.82,1,414.10
85436,0.00,1.2,-0.1,57.3,0.8771,-0.0039,-0.0105,-0.4799,0.61,0.37,0.25,43.244384,-0.039981,-2.97,1,414.10
85436,0.00,1.2,-0.1,57.3,0.8771,-0.0039,-0.0105,-0.4799,0.61,0.37,0.25,43.244384,-0.039981,-2.97,1,414.10
85436,0.00,1.2,-0.1,57.3,0.8771,-0.0039,-0.0105,-0.4799,0.61,0.37,0.25,43.244384,-0.039981,-2.97,1,414.10
85436,0.00,1.2,-0.1,57.3,0.8771,-0.0039,-0.0105,-0.4799,0.61,0.37,0.25,43.244384,-0.039981,-2.97,1,414.10
85436,0.00,1.2,-0.1,57.3,0.8771,-0.0039,-0.0105,-0.4799,0.61,0.37,0.25,43.244384,-0.039981,-2.97,1,414.10
85448,0.00,1.4,-0.1,57.4,0.8767,-0.0046,-0.0119,-0.4807,0.07,-0.66,0.28,43.244384,-0.039981,-2.97,1,414.10
85448,0.00,1.4,-0.1,57.4,0.8767,-0.0046,-0.0119,-0.4807,0.07,-0.66,0.28,43.244384,-0.039981,-2.97,1,414.10
85448,0.00,1.4,-0.1,57.4,0.8767,-0.0046,-0.0119,-0.4807,0.07,-0.66,0.28,43.244384,-0.039981,-2.97,1,414.10
85448,0.00,1.4,-0.1,57.4,0.8767,-0.0046,-0.0119,-0.4807,0.07,-0.66,0.28,43.244384,-0.039981,-2.97,1,414.10
85448,0.00,1.4,-0.1,57.4,0.8767,-0.0046,-0.0119,-0.4807,0.07,-0.66,0.28,43.244384,-0.039981,-2.97,1,414.10
85461,0.00,1.6,-0.0,57.5,0.8762,-0.0059,-0.0130,-0.4816,0.07,-0.66,0.28,43.244384,-0.039981,-2.97,1,414.10
85461,0.00,1.6,-0.0,57.5,0.8762,-0.0059,-0.0130,-0.4816,0.07,-0.66,0.28,43.244384,-0.039981,-2.97,1,414.10
85461,0.00,1.6,-0.0,57.5,0.8762,-0.0059,-0.0130,-0.4816,0.07,-0.66,0.28,43.244384,-0.039981,-2.97,1,414.10
85461,0.00,1.6,-0.0,57.5,0.8762,-0.0059,-0.0130,-0.4816,0.07,-0.66,0.28,43.244384,-0.039981,-2.97,1,414.10
85461,0.00,1.6,-0.0,57.5,0.8762,-0.0059,-0.0130,-0.4816,0.07,-0.66,0.28,43.244384,-0.039981,-2.97,1,414.10
85474,0.00,1.6,0.3,57.9,0.8746,-0.0106,-0.0113,-0.4844,-0.65,-2.61,-0.01,43.244384,-0.039981,-2.97,1,414.10
85474,0.00,1.6,0.3,57.9,0.8746,-0.0106,-0.0113,-0.4844,-0.65,-2.61,-0.01,43.244384,-0.039981,-2.97,1,414.10
85474,0.00,1.6,0.3,57.9,0.8746,-0.0106,-0.0113,-0.4844,-0.65,-2.61,-0.01,43.244384,-0.039981,-2.97,1,414.10
85474,0.00,1.6,0.3,57.9,0.8746,-0.0106,-0.0113,-0.4844,-0.65,-2.61,-0.01,43.244384,-0.039981,-2.97,1,414.10
85474,0.00,1.6,0.3,57.9,0.8746,-0.0106,-0.0113,-0.4844,-0.65,-2.61,-0.01,43.244384,-0.039981,-2.97,1,414.10
85487,0.00,1.3,3.0,59.9,0.8658,-0.0290,0.0032,-0.4994,-3.06,1.00,0.40,43.244384,-0.039981,-3.14,1,414.10
85487,0.00,1.3,3.0,59.9,0.8658,-0.0290,0.0032,-0.4994,-3.06,1.00,0.40,43.244384,-0.039981,-3.14,1,414.10
85487,0.00,1.3,3.0,59.9,0.8658,-0.0290,0.0032,-0.4994,-3.06,1.00,0.40,43.244384,-0.039981,-3.14,1,414.10
85487,0.00,1.3,3.0,59.9,0.8658,-0.0290,0.0032,-0.4994,-3.06,1.00,0.40,43.244384,-0.039981,-3.14,1,414.10
85487,0.00,1.3,3.0,59.9,0.8658,-0.0290,0.0032,-0.4994,-3.06,1.00,0.40,43.244384,-0.039981,-3.14,1,414.10
85499,0.00,0.8,3.8,60.8,0.8602,-0.0349,0.0167,-0.5083,-0.66,-0.23,1.08,43.244384,-0.039981,-3.14,1,414.10
85499,0.00,0.8,3.8,60.8,0.8602,-0.0349,0.0167,-0.5083,-0.66,-0.23,1.08,43.244384,-0.039981,-3.14,1,414.10
85499,0.00,0.8,3.8,60.8,0.8602,-0.0349,0.0167,-0.5083,-0.66,-0.23,1.08,43.244384,-0.039981,-3.14,1,414.10
85499,0.00,0.8,3.8,60.8,0.8602,-0.0349,0.0167,-0.5083,-0.66,-0.23,1.08,43.244384,-0.039981,-3.14,1,414.10
85499,0.00,0.8,3.8,60.8,0.8602,-0.0349,0.0167,-0.5083,-0.66,-0.23,1.08,43.244384,-0.039981,-3.14,1,414.10
85512,0.00,0.3,4.3,61.1,0.8602,-0.0349,0.0167,-0.5083,-0.66,-0.23,1.08,43.244384,-0.039981,-3.14,1,414.10
85512,0.00,0.3,4.3,61.1,0.8602,-0.0349,0.0167,-0.5083,-0.66,-0.23,1.08,43.244384,-0.039981,-3.14,1,414.10
85512,0.00,0.3,4.3,61.1,0.8602,-0.0349,0.0167,-0.5083,-0.66,-0.23,1.08,43.244384,-0.039981,-3.14,1,414.10
85512,0.00,0.3,4.3,61.1,0.8602,-0.0349,0.0167,-0.5083,-0.66,-0.23,1.08,43.244384,-0.039981,-3.14,1,414.10
85512,0.00,0.3,4.3,61.1,0.8602,-0.0349,0.0167,-0.5083,-0.66,-0.23,1.08,43.244384,-0.039981,-3.14,1,414.10
85525,0.00,-0.5,4.7,60.7,0.8637,-0.0302,0.0264,-0.5022,0.28,-0.34,-0.65,43.244384,-0.039981,-3.14,1,414.10
85525,0.00,-0.5,4.7,60.7,0.8637,-0.0302,0.0264,-0.5022,0.28,-0.34,-0.65,43.244384,-0.039981,-3.14,1,414.10
85525,0.00,-0.5,4.7,60.7,0.8637,-0.0302,0.0264,-0.5022,0.28,-0.34,-0.65,43.244384,-0.039981,-3.14,1,414.10
85525,0.00,-0.5,4.7,60.7,0.8637,-0.0302,0.0264,-0.5022,0.28,-0.34,-0.65,43.244384,-0.039981,-3.14,1,414.10
85525,0.00,-0.5,4.7,60.7,0.8637,-0.0302,0.0264,-0.5022,0.28,-0.34,-0.65,43.244384,-0.039981,-3.14,1,414.10
85538,0.00,-0.8,4.5,60.3,0.8665,-0.0261,0.0247,-0.4977,0.35,-0.10,-0.43,43.244384,-0.039981,-3.30,1,414.10
85538,0.00,-0.8,4.5,60.3,0.8665,-0.0261,0.0247,-0.4977,0.35,-0.10,-0.43,43.244384,-0.039981,-3.30,1,414.10
85538,0.00,-0.8,4.5,60.3,0.8665,-0.0261,0.0247,-0.4977,0.35,-0.10,-0.43,43.244384,-0.039981,-3.30,1,414.10
85538,0.00,-0.8,4.5,60.3,0.8665,-0.0261,0.0247,-0.4977,0.35,-0.10,-0.43,43.244384,-0.039981,-3.30,1,414.10
85538,0.00,-0.8,4.5,60.3,0.8665,-0.0261,0.0247,-0.4977,0.35,-0.10,-0.43,43.244384,-0.039981,-3.30,1,414.10
85550,0.00,-0.8,3.3,59.0,0.8698,-0.0219,0.0214,-0.4923,0.15,-0.10,-0.20,43.244384,-0.039981,-3.30,1,414.10
85550,0.00,-0.8,3.3,59.0,0.8698,-0.0219,0.0214,-0.4923,0.15,-0.10,-0.20,43.244384,-0.039981,-3.30,1,414.10
85550,0.00,-0.8,3.3,59.0,0.8698,-0.0219,0.0214,-0.4923,0.15,-0.10,-0.20,43.244384,-0.039981,-3.30,1,414.10
85550,0.00,-0.8,3.3,59.0,0.8698,-0.0219,0.0214,-0.4923,0.15,-0.10,-0.20,43.244384,-0.039981,-3.30,1,414.10
85550,0.00,-0.8,3.3,59.0,0.8698,-0.0219,0.0214,-0.4923,0.15,-0.10,-0.20,43.244384,-0.039981,-3.30,1,414.10
85563,0.00,-0.8,3.3,59.0,0.8698,-0.0219,0.0214,-0.4923,0.15,-0.10,-0.20,43.244384,-0.039981,-3.30,1,414.10
85563,0.00,-0.8,3.3,59.0,0.8698,-0.0219,0.0214,-0.4923,0.15,-0.10,-0.20,43.244384,-0.039981,-3.30,1,414.10
85563,0.00,-0.8,3.3,59.0,0.8698,-0.0219,0.0214,-0.4923,0.15,-0.10,-0.20,43.244384,-0.039981,-3.30,1,414.10
85563,0.00,-0.8,3.3,59.0,0.8698,-0.0219,0.0214,-0.4923,0.15,-0.10,-0.20,43.244384,-0.039981,-3.30,1,414.10
85563,0.00,-0.8,3.3,59.0,0.8698,-0.0219,0.0214,-0.4923,0.15,-0.10,-0.20,43.244384,-0.039981,-3.30,1,414.10
85576,0.00,-0.5,1.3,56.6,0.8801,-0.0086,0.0098,-0.4746,0.37,-0.05,-0.17,43.244384,-0.039981,-3.30,1,414.10
85576,0.00,-0.5,1.3,56.6,0.8801,-0.0086,0.0098,-0.4746,0.37,-0.05,-0.17,43.244384,-0.039981,-3.30,1,414.10
85576,0.00,-0.5,1.3,56.6,0.8801,-0.0086,0.0098,-0.4746,0.37,-0.05,-0.17,43.244384,-0.039981,-3.30,1,414.10
85576,0.00,-0.5,1.3,56.6,0.8801,-0.0086,0.0098,-0.4746,0.37,-0.05,-0.17,43.244384,-0.039981,-3.30,1,414.10
85576,0.00,-0.5,1.3,56.6,0.8801,-0.0086,0.0098,-0.4746,0.37,-0.05,-0.17,43.244384,-0.039981,-3.30,1,414.10
85589,0.00,-0.3,0.8,56.0,0.8825,-0.0047,0.0062,-0.4702,0.63,0.22,-0.79,43.244384,-0.039981,-3.45,1,414.10
85589,0.00,-0.3,0.8,56.0,0.8825,-0.0047,0.0062,-0.4702,0.63,0.22,-0.79,43.244384,-0.039981,-3.45,1,414.10
85589,0.00,-0.3,0.8,56.0,0.8825,-0.0047,0.0062,-0.4702,0.63,0.22,-0.79,43.244384,-0.039981,-3.45,1,414.10
85589,0.00,-0.3,0.8,56.0,0.8825,-0.0047,0.0062,-0.4702,0.63,0.22,-0.79,43.244384,-0.039981,-3.45,1,414.10
85589,0.00,-0.3,0.8,56.0,0.8825,-0.0047,0.0062,-0.4702,0.63,0.22,-0.79,43.244384,-0.039981,-3.45,1,414.10
85601,0.00,-0.1,0.3,55.5,0.8845,-0.0015,0.0029,-0.4664,0.80,0.38,-0.37,43.244384,-0.039981,-3.45,1,414.10
85601,0.00,-0.1,0.3,55.5,0.8845,-0.0015,0.0029,-0.4664,0.80,0.38,-0.37,43.244384,-0.039981,-3.45,1,414.10
85601,0.00,-0.1,0.3,55.5,0.8845,-0.0015,0.0029,-0.4664,0.80,0.38,-0.37,43.244384,-0.039981,-3.45,1,414.10
85601,0.00,-0.1,0.3,55.5,0.8845,-0.0015,0.0029,-0.4664,0.80,0.38,-0.37,43.244384,-0.039981,-3.45,1,414.10
85601,0.00,-0.1,0.3,55.5,0.8845,-0.0015,0.0029,-0.4664,0.80,0.38,-0.37,43.244384,-0.039981,-3.45,1,414.10
85614,0.00,-0.1,0.3,55.5,0.8845,-0.0015,0.0029,-0.4664,1.13,0.22,-0.41,43.244384,-0.039981,-3.45,1,414.10
85614,0.00,-0.1,0.3,55.5,0.8845,-0.0015,0.0029,-0.4664,1.13,0.22,-0.41,43.244384,-0.039981,-3.45,1,414.10
85614,0.00,-0.1,0.3,55.5,0.8845,-0.0015,0.0029,-0.4664,1.13,0.22,-0.41,43.244384,-0.039981,-3.45,1,414.10
85614,0.00,-0.1,0.3,55.5,0.8845,-0.0015,0.0029,-0.4664,1.13,0.22,-0.41,43.244384,-0.039981,-3.45,1,414.10
85614,0.00,-0.1,0.3,55.5,0.8845,-0.0015,0.0029,-0.4664,1.13,0.22,-0.41,43.244384,-0.039981,-3.45,1,414.10
85627,0.00,0.3,-0.5,55.0,0.8865,0.0024,-0.0052,-0.4625,1.45,0.28,-1.00,43.244384,-0.039981,-3.45,1,414.10
85627,0.00,0.3,-0.5,55.0,0.8865,0.0024,-0.0052,-0.4625,1.45,0.28,-1.00,43.244384,-0.039981,-3.45,1,414.10
85627,0.00,0.3,-0.5,55.0,0.8865,0.0024,-0.0052,-0.4625,1.45,0.28,-1.00,43.244384,-0.039981,-3.45,1,414.10
85627,0.00,0.3,-0.5,55.0,0.8865,0.0024,-0.0052,-0.4625,1.45,0.28,-1.00,43.244384,-0.039981,-3.45,1,414.10
85627,0.00,0.3,-0.5,55.0,0.8865,0.0024,-0.0052,-0.4625,1.45,0.28,-1.00,43.244384,-0.039981,-3.45,1,414.10
85640,0.00,0.5,-0.5,55.3,0.8854,0.0020,-0.0069,-0.4647,1.53,0.28,-0.93,43.244384,-0.039981,-3.63,1,414.10
85640,0.00,0.5,-0.5,55.3,0.8854,0.0020,-0.0069,-0.4647,1.53,0.28,-0.93,43.244384,-0.039981,-3.63,1,414.10
85640,0.00,0.5,-0.5,55.3,0.8854,0.0020,-0.0069,-0.4647,1.53,0.28,-0.93,43.244384,-0.039981,-3.63,1,414.10
85640,0.00,0.5,-0.5,55.3,0.8854,0.0020,-0.0069,-0.4647,1.53,0.28,-0.93,43.244384,-0.039981,-3.63,1,414.10
85640,0.00,0.5,-0.5,55.3,0.8854,0.0020,-0.0069,-0.4647,1.53,0.28,-0.93,43.244384,-0.039981,-3.63,1,414.10
85653,0.00,0.7,-0.5,55.8,0.8833,0.0008,-0.0081,-0.4686,1.12,0.22,-0.10,43.244384,-0.039981,-3.63,1,414.10
85653,0.00,0.7,-0.5,55.8,0.8833,0.0008,-0.0081,-0.4686,1.12,0.22,-0.10,43.244384,-0.039981,-3.63,1,414.10
85653,0.00,0.7,-0.5,55.8,0.8833,0.0008,-0.0081,-0.4686,1.12,0.22,-0.10,43.244384,-0.039981,-3.63,1,414.10
85653,0.00,0.7,-0.5,55.8,0.8833,0.0008,-0.0081,-0.4686,1.12,0.22,-0.10,43.244384,-0.039981,-3.63,1,414.10
85653,0.00,0.7,-0.5,55.8,0.8833,0.0008,-0.0081,-0.4686,1.12,0.22,-0.10,43.244384,-0.039981,-3.63,1,414.10
85665,0.00,1.0,-0.4,56.3,0.8811,-0.0009,-0.0102,-0.4727,1.24,1.13,1.24,43.244384,-0.039981,-3.63,1,414.10
85665,0.00,1.0,-0.4,56.3,0.8811,-0.0009,-0.0102,-0.4727,1.24,1.13,1.24,43.244384,-0.039981,-3.63,1,414.10
85665,0.00,1.0,-0.4,56.3,0.8811,-0.0009,-0.0102,-0.4727,1.24,1.13,1.24,43.244384,-0.039981,-3.63,1,414.10
85665,0.00,1.0,-0.4,56.3,0.8811,-0.0009,-0.0102,-0.4727,1.24,1.13,1.24,43.244384,-0.039981,-3.63,1,414.10
85665,0.00,1.0,-0.4,56.3,0.8811,-0.0009,-0.0102,-0.4727,1.24,1.13,1.24,43.244384,-0.039981,-3.63,1,414.10
85678,0.00,3.0,-0.4,56.8,0.8789,-0.0090,-0.0252,-0.4761,1.72,0.76,0.15,43.244384,-0.039981,-3.63,1,414.10
85678,0.00,3.0,-0.4,56.8,0.8789,-0.0090,-0.0252,-0.4761,1.72,0.76,0.15,43.244384,-0.039981,-3.63,1,414.10
85678,0.00,3.0,-0.4,56.8,0.8789,-0.0090,-0.0252,-0.4761,1.72,0.76,0.15,43.244384,-0.039981,-3.63,1,414.10
85678,0.00,3.0,-0.4,56.8,0.8789,-0.0090,-0.0252,-0.4761,1.72,0.76,0.15,43.244384,-0.039981,-3.63,1,414.10
85678,0.00,3.0,-0.4,56.8,0.8789,-0.0090,-0.0252,-0.4761,1.72,0.76,0.15,43.244384,-0.039981,-3.63,1,414.10
85691,0.00,4.6,-0.2,57.1,0.8770,-0.0170,-0.0367,-0.4786,0.44,-0.40,0.46,43.244384,-0.039981,-3.81,1,414.10
85691,0.00,4.6,-0.2,57.1,0.8770,-0.0170,-0.0367,-0.4786,0.44,-0.40,0.46,43.244384,-0.039981,-3.81,1,414.10
85691,0.00,4.6,-0.2,57.1,0.8770,-0.0170,-0.0367,-0.4786,0.44,-0.40,0.46,43.244384,-0.039981,-3.81,1,414.10
85691,0.00,4.6,-0.2,57.1,0.8770,-0.0170,-0.0367,-0.4786,0.44,-0.40,0.46,43.244384,-0.039981,-3.81,1,414.10
85691,0.00,4.6,-0.2,57.1,0.8770,-0.0170,-0.0367,-0.4786,0.44,-0.40,0.46,43.244384,-0.039981,-3.81,1,414.10
85704,0.00,6.1,-0.0,57.6,0.8745,-0.0252,-0.0480,-0.4818,-0.47,1.32,-0.63,43.244384,-0.039981,-3.81,1,414.10
85704,0.00,6.1,-0.0,57.6,0.8745,-0.0252,-0.0480,-0.4818,-0.47,1.32,-0.63,43.244384,-0.039981,-3.81,1,414.10
85704,0.00,6.1,-0.0,57.6,0.8745,-0.0252,-0.0480,-0.4818,-0.47,1.32,-0.63,43.244384,-0.039981,-3.81,1,414.10
85704,0.00,6.1,-0.0,57.6,0.8745,-0.0252,-0.0480,-0.4818,-0.47,1.32,-0.63,43.244384,-0.039981,-3.81,1,414.10
85704,0.00,6.1,-0.0,57.6,0.8745,-0.0252,-0.0480,-0.4818,-0.47,1.32,-0.63,43.244384,-0.039981,-3.81,1,414.10
85717,0.00,7.6,-0.1,58.1,0.8719,-0.0305,-0.0590,-0.4850,0.37,0.69,-0.86,43.244384,-0.039981,-3.81,1,414.10
85717,0.00,7.6,-0.1,58.1,0.8719,-0.0305,-0.0590,-0.4850,0.37,0.69,-0.86,43.244384,-0.039981,-3.81,1,414.10
85717,0.00,7.6,-0.1,58.1,0.8719,-0.0305,-0.0590,-0.4850,0.37,0.69,-0.86,43.244384,-0.039981,-3.81,1,414.10
85717,0.00,7.6,-0.1,58.1,0.8719,-0.0305,-0.0590,-0.4850,0.37,0.69,-0.86,43.244384,-0.039981,-3.81,1,414.10
85717,0.00,7.6,-0.1,58.1,0.8719,-0.0305,-0.0590,-0.4850,0.37,0.69,-0.86,43.244384,-0.039981,-3.81,1,414.10
85729,0.00,9.6,-1.0,58.6,0.8684,-0.0335,-0.0780,-0.4884,-0.60,0.88,-1.61,43.244384,-0.039981,-3.81,1,414.10
85729,0.00,9.6,-1.0,58.6,0.8684,-0.0335,-0.0780,-0.4884,-0.60,0.88,-1.61,43.244384,-0.039981,-3.81,1,414.10
85729,0.00,9.6,-1.0,58.6,0.8684,-0.0335,-0.0780,-0.4884,-0.60,0.88,-1.61,43.244384,-0.039981,-3.81,1,414.10
85729,0.00,9.6,-1.0,58.6,0.8684,-0.0335,-0.0780,-0.4884,-0.60,0.88,-1.61,43.244384,-0.039981,-3.81,1,414.10
85729,0.00,9.6,-1.0,58.6,0.8684,-0.0335,-0.0780,-0.4884,-0.60,0.88,-1.61,43.244384,-0.039981,-3.81,1,414.10
85742,0.00,10.2,-1.5,58.6,0.8679,-0.0318,-0.0852,-0.4881,-0.37,0.91,-1.50,43.244384,-0.039981,-4.01,1,414.10
85742,0.00,10.2,-1.5,58.6,0.8679,-0.0318,-0.0852,-0.4881,-0.37,0.91,-1.50,43.244384,-0.039981,-4.01,1,414.10
85742,0.00,10.2,-1.5,58.6,0.8679,-0.0318,-0.0852,-0.4881,-0.37,0.91,-1.50,43.244384,-0.039981,-4.01,1,414.10
85742,0.00,10.2,-1.5,58.6,0.8679,-0.0318,-0.0852,-0.4881,-0.37,0.91,-1.50,43.244384,-0.039981,-4.01,1,414.10
85742,0.00,10.2,-1.5,58.6,0.8679,-0.0318,-0.0852,-0.4881,-0.37,0.91,-1.50,43.244384,-0.039981,-4.01,1,414.10
85755,0.00,10.6,-2.1,58.4,0.8685,-0.0293,-0.0908,-0.4862,0.25,0.90,-1.52,43.244384,-0.039981,-4.01,1,414.10
85755,0.00,10.6,-2.1,58.4,0.8685,-0.0293,-0.0908,-0.4862,0.25,0.90,-1.52,43.244384,-0.039981,-4.01,1,414.10
85755,0.00,10.6,-2.1,58.4,0.8685,-0.0293,-0.0908,-0.4862,0.25,0.90,-1.52,43.244384,-0.039981,-4.01,1,414.10
85755,0.00,10.6,-2.1,58.4,0.8685,-0.0293,-0.0908,-0.4862,0.25,0.90,-1.52,43.244384,-0.039981,-4.01,1,414.10
85755,0.00,10.6,-2.1,58.4,0.8685,-0.0293,-0.0908,-0.4862,0.25,0.90,-1.52,43.244384,-0.039981,-4.01,1,414.10
85768,0.00,10.9,-2.6,58.0,0.8699,-0.0260,-0.0947,-0.4832,0.36,1.35,-1.46,43.244384,-0.039981,-4.01,1,414.10
85768,0.00,10.9,-2.6,58.0,0.8699,-0.0260,-0.0947,-0.4832,0.36,1.35,-1.46,43.244384,-0.039981,-4.01,1,414.10
85768,0.00,10.9,-2.6,58.0,0.8699,-0.0260,-0.0947,-0.4832,0.36,1.35,-1.46,43.244384,-0.039981,-4.01,1,414.10
85768,0.00,10.9,-2.6,58.0,0.8699,-0.0260,-0.0947,-0.4832,0.36,1.35,-1.46,43.244384,-0.039981,-4.01,1,414.10
85768,0.00,10.9,-2.6,58.0,0.8699,-0.0260,-0.0947,-0.4832,0.36,1.35,-1.46,43.244384,-0.039981,-4.01,1,414.10
85780,0.00,10.5,-3.5,57.3,0.8733,-0.0174,-0.0951,-0.4773,0.00,0.35,-1.20,43.244384,-0.039981,-4.01,1,414.10
85780,0.00,10.5,-3.5,57.3,0.8733,-0.0174,-0.0951,-0.4773,0.00,0.35,-1.20,43.244384,-0.039981,-4.01,1,414.10
85780,0.00,10.5,-3.5,57.3,0.8733,-0.0174,-0.0951,-0.4773,0.00,0.35,-1.20,43.244384,-0.039981,-4.01,1,414.10
85780,0.00,10.5,-3.5,57.3,0.8733,-0.0174,-0.0951,-0.4773,0.00,0.35,-1.20,43.244384,-0.039981,-4.01,1,414.10
85780,0.00,10.5,-3.5,57.3,0.8733,-0.0174,-0.0951,-0.4773,0.00,0.35,-1.20,43.244384,-0.039981,-4.01,1,414.10
85793,0.00,10.0,-3.7,57.0,0.8748,-0.0130,-0.0927,-0.4753,0.22,0.05,-0.61,43.244384,-0.039981,-4.17,1,414.10
85793,0.00,10.0,-3.7,57.0,0.8748,-0.0130,-0.0927,-0.4753,0.22,0.05,-0.61,43.244384,-0.039981,-4.17,1,414.10
85793,0.00,10.0,-3.7,57.0,0.8748,-0.0130,-0.0927,-0.4753,0.22,0.05,-0.61,43.244384,-0.039981,-4.17,1,414.10
85793,0.00,10.0,-3.7,57.0,0.8748,-0.0130,-0.0927,-0.4753,0.22,0.05,-0.61,43.244384,-0.039981,-4.17,1,414.10
85793,0.00,10.0,-3.7,57.0,0.8748,-0.0130,-0.0927,-0.4753,0.22,0.05,-0.61,43.244384,-0.039981,-4.17,1,414.10
85806,0.00,9.4,-3.9,56.8,0.8758,-0.0089,-0.0889,-0.4742,0.11,-0.19,-0.20,43.244384,-0.039981,-4.17,1,414.10
85806,0.00,9.4,-3.9,56.8,0.8758,-0.0089,-0.0889,-0.4742,0.11,-0.19,-0.20,43.244384,-0.039981,-4.17,1,414.10
85806,0.00,9.4,-3.9,56.8,0.8758,-0.0089,-0.0889,-0.4742,0.11,-0.19,-0.20,43.244384,-0.039981,-4.17,1,414.10
85806,0.00,9.4,-3.9,56.8,0.8758,-0.0089,-0.0889,-0.4742,0.11,-0.19,-0.20,43.244384,-0.039981,-4.17,1,414.10
85806,0.00,9.4,-3.9,56.8,0.8758,-0.0089,-0.0889,-0.4742,0.11,-0.19,-0.20,43.244384,-0.039981,-4.17,1,414.10
85819,0.00,8.7,-4.0,56.7,0.8765,-0.0056,-0.0842,-0.4738,0.19,-0.34,0.13,43.244384,-0.039981,-4.17,1,414.10
85819,0.00,8.7,-4.0,56.7,0.8765,-0.0056,-0.0842,-0.4738,0.19,-0.34,0.13,43.244384,-0.039981,-4.17,1,414.10
85819,0.00,8.7,-4.0,56.7,0.8765,-0.0056,-0.0842,-0.4738,0.19,-0.34,0.13,43.244384,-0.039981,-4.17,1,414.10
85819,0.00,8.7,-4.0,56.7,0.8765,-0.0056,-0.0842,-0.4738,0.19,-0.34,0.13,43.244384,-0.039981,-4.17,1,414.10
85819,0.00,8.7,-4.0,56.7,0.8765,-0.0056,-0.0842,-0.4738,0.19,-0.34,0.13,43.244384,-0.039981,-4.17,1,414.10
85831,0.00,8.1,-3.9,56.7,0.8768,-0.0034,-0.0790,-0.4741,0.22,-0.36,0.23,43.244384,-0.039981,-4.17,1,414.10
85831,0.00,8.1,-3.9,56.7,0.8768,-0.0034,-0.0790,-0.4741,0.22,-0.36,0.23,43.244384,-0.039981,-4.17,1,414.10
85831,0.00,8.1,-3.9,56.7,0.8768,-0.0034,-0.0790,-0.4741,0.22,-0.36,0.23,43.244384,-0.039981,-4.17,1,414.10
85831,0.00,8.1,-3.9,56.7,0.8768,-0.0034,-0.0790,-0.4741,0.22,-0.36,0.23,43.244384,-0.039981,-4.17,1,414.10
85831,0.00,8.1,-3.9,56.7,0.8768,-0.0034,-0.0790,-0.4741,0.22,-0.36,0.23,43.244384,-0.039981,-4.17,1,414.10
85844,0.00,7.1,-3.6,57.0,0.8762,-0.0017,-0.0701,-0.4768,0.28,0.07,-0.15,43.244384,-0.039981,-4.35,1,414.10
85844,0.00,7.1,-3.6,57.0,0.8762,-0.0017,-0.0701,-0.4768,0.28,0.07,-0.15,43.244384,-0.039981,-4.35,1,414.10
85844,0.00,7.1,-3.6,57.0,0.8762,-0.0017,-0.0701,-0.4768,0.28,0.07,-0.15,43.244384,-0.039981,-4.35,1,414.10
85844,0.00,7.1,-3.6,57.0,0.8762,-0.0017,-0.0701,-0.4768,0.28,0.07,-0.15,43.244384,-0.039981,-4.35,1,414.10
85844,0.00,7.1,-3.6,57.0,0.8762,-0.0017,-0.0701,-0.4768,0.28,0.07,-0.15,43.244384,-0.039981,-4.35,1,414.10
85857,0.00,6.8,-3.5,57.2,0.8757,-0.0016,-0.0675,-0.4780,0.27,0.03,-0.17,43.244384,-0.039981,-4.35,1,414.10
85857,0.00,6.8,-3.5,57.2,0.8757,-0.0016,-0.0675,-0.4780,0.27,0.03,-0.17,43.244384,-0.039981,-4.35,1,414.10
85857,0.00,6.8,-3.5,57.2,0.8757,-0.0016,-0.0675,-0.4780,0.27,0.03,-0.17,43.244384,-0.039981,-4.35,1,414.10
85857,0.00,6.8,-3.5,57.2,0.8757,-0.0016,-0.0675,-0.4780,0.27,0.03,-0.17,43.244384,-0.039981,-4.35,1,414.10
85857,0.00,6.8,-3.5,57.2,0.8757,-0.0016,-0.0675,-0.4780,0.27,0.03,-0.17,43.244384,-0.039981,-4.35,1,414.10
85870,0.00,6.6,-3.4,57.3,0.8753,-0.0018,-0.0657,-0.4790,0.20,0.00,-0.55,43.244384,-0.039981,-4.35,1,414.10
85870,0.00,6.6,-3.4,57.3,0.8753,-0.0018,-0.0657,-0.4790,0.20,0.00,-0.55,43.244384,-0.039981,-4.35,1,414.10
85870,0.00,6.6,-3.4,57.3,0.8753,-0.0018,-0.0657,-0.4790,0.20,0.00,-0.55,43.244384,-0.039981,-4.35,1,414.10
85870,0.00,6.6,-3.4,57.3,0.8753,-0.0018,-0.0657,-0.4790,0.20,0.00,-0.55,43.244384,-0.039981,-4.35,1,414.10
85870,0.00,6.6,-3.4,57.3,0.8753,-0.0018,-0.0657,-0.4790,0.20,0.00,-0.55,43.244384,-0.039981,-4.35,1,414.10
85882,0.00,6.6,-3.3,57.5,0.8748,-0.0023,-0.0647,-0.4800,0.00,0.00,-0.34,43.244384,-0.039981,-4.35,1,414.10
85882,0.00,6.6,-3.3,57.5,0.8748,-0.0023,-0.0647,-0.4800,0.00,0.00,-0.34,43.244384,-0.039981,-4.35,1,414.10
85882,0.00,6.6,-3.3,57.5,0.8748,-0.0023,-0.0647,-0.4800,0.00,0.00,-0.34,43.244384,-0.039981,-4.35,1,414.10
85882,0.00,6.6,-3.3,57.5,0.8748,-0.0023,-0.0647,-0.4800,0.00,0.00,-0.34,43.244384,-0.039981,-4.35,1,414.10
85882,0.00,6.6,-3.3,57.5,0.8748,-0.0023,-0.0647,-0.4800,0.00,0.00,-0.34,43.244384,-0.039981,-4.35,1,414.10
85895,0.00,6.5,-3.1,57.6,0.8743,-0.0031,-0.0639,-0.4811,-0.11,-0.09,-0.20,43.244384,-0.039981,-4.52,1,414.10
85895,0.00,6.5,-3.1,57.6,0.8743,-0.0031,-0.0639,-0.4811,-0.11,-0.09,-0.20,43.244384,-0.039981,-4.52,1,414.10
85895,0.00,6.5,-3.1,57.6,0.8743,-0.0031,-0.0639,-0.4811,-0.11,-0.09,-0.20,43.244384,-0.039981,-4.52,1,414.10
85895,0.00,6.5,-3.1,57.6,0.8743,-0.0031,-0.0639,-0.4811,-0.11,-0.09,-0.20,43.244384,-0.039981,-4.52,1,414.10
85895,0.00,6.5,-3.1,57.6,0.8743,-0.0031,-0.0639,-0.4811,-0.11,-0.09,-0.20,43.244384,-0.039981,-4.52,1,414.10
85907,0.00,6.6,-3.0,58.0,0.8728,-0.0048,-0.0640,-0.4838,0.11,-0.00,0.25,43.244384,-0.039981,-4.52,1,414.10
85907,0.00,6.6,-3.0,58.0,0.8728,-0.0048,-0.0640,-0.4838,0.11,-0.00,0.25,43.244384,-0.039981,-4.52,1,414.10
85907,0.00,6.6,-3.0,58.0,0.8728,-0.0048,-0.0640,-0.4838,0.11,-0.00,0.25,43.244384,-0.039981,-4.52,1,414.10
85907,0.00,6.6,-3.0,58.0,0.8728,-0.0048,-0.0640,-0.4838,0.11,-0.00,0.25,43.244384,-0.039981,-4.52,1,414.10
85907,0.00,6.6,-3.0,58.0,0.8728,-0.0048,-0.0640,-0.4838,0.11,-0.00,0.25,43.244384,-0.039981,-4.52,1,414.10
85920,0.00,6.7,-3.0,58.1,0.8721,-0.0057,-0.0643,-0.4848,-0.13,-0.12,0.27,43.244384,-0.039981,-4.52,1,414.10
85920,0.00,6.7,-3.0,58.1,0.8721,-0.0057,-0.0643,-0.4848,-0.13,-0.12,0.27,43.244384,-0.039981,-4.52,1,414.10
85920,0.00,6.7,-3.0,58.1,0.8721,-0.0057,-0.0643,-0.4848,-0.13,-0.12,0.27,43.244384,-0.039981,-4.52,1,414.10
85920,0.00,6.7,-3.0,58.1,0.8721,-0.0057,-0.0643,-0.4848,-0.13,-0.12,0.27,43.244384,-0.039981,-4.52,1,414.10
85920,0.00,6.7,-3.0,58.1,0.8721,-0.0057,-0.0643,-0.4848,-0.13,-0.12,0.27,43.244384,-0.039981,-4.52,1,414.10
85933,0.00,6.8,-2.9,58.1,0.8717,-0.0065,-0.0644,-0.4856,-0.27,-0.38,0.20,43.244384,-0.039981,-4.52,1,414.10
85933,0.00,6.8,-2.9,58.1,0.8717,-0.0065,-0.0644,-0.4856,-0.27,-0.38,0.20,43.244384,-0.039981,-4.52,1,414.10
85933,0.00,6.8,-2.9,58.1,0.8717,-0.0065,-0.0644,-0.4856,-0.27,-0.38,0.20,43.244384,-0.039981,-4.52,1,414.10
85933,0.00,6.8,-2.9,58.1,0.8717,-0.0065,-0.0644,-0.4856,-0.27,-0.38,0.20,43.244384,-0.039981,-4.52,1,414.10
85933,0.00,6.8,-2.9,58.1,0.8717,-0.0065,-0.0644,-0.4856,-0.27,-0.38,0.20,43.244384,-0.039981,-4.52,1,414.10
85946,0.00,6.7,-2.8,58.4,0.8709,-0.0075,-0.0634,-0.4872,-0.38,-0.25,-0.11,43.244384,-0.039981,-4.68,1,414.10
85946,0.00,6.7,-2.8,58.4,0.8709,-0.0075,-0.0634,-0.4872,-0.38,-0.25,-0.11,43.244384,-0.039981,-4.68,1,414.10
85946,0.00,6.7,-2.8,58.4,0.8709,-0.0075,-0.0634,-0.4872,-0.38,-0.25,-0.11,43.244384,-0.039981,-4.68,1,414.10
85946,0.00,6.7,-2.8,58.4,0.8709,-0.0075,-0.0634,-0.4872,-0.38,-0.25,-0.11,43.244384,-0.039981,-4.68,1,414.10
85946,0.00,6.7,-2.8,58.4,0.8709,-0.0075,-0.0634,-0.4872,-0.38,-0.25,-0.11,43.244384,-0.039981,-4.68,1,414.10
85959,0.00,6.6,-2.7,58.5,0.8705,-0.0075,-0.0623,-0.4880,-0.27,-0.37,-0.36,43.244384,-0.039981,-4.68,1,414.10
85959,0.00,6.6,-2.7,58.5,0.8705,-0.0075,-0.0623,-0.4880,-0.27,-0.37,-0.36,43.244384,-0.039981,-4.68,1,414.10
85959,0.00,6.6,-2.7,58.5,0.8705,-0.0075,-0.0623,-0.4880,-0.27,-0.37,-0.36,43.244384,-0.039981,-4.68,1,414.10
85959,0.00,6.6,-2.7,58.5,0.8705,-0.0075,-0.0623,-0.4880,-0.27,-0.37,-0.36,43.244384,-0.039981,-4.68,1,414.10
85959,0.00,6.6,-2.7,58.5,0.8705,-0.0075,-0.0623,-0.4880,-0.27,-0.37,-0.36,43.244384,-0.039981,-4.68,1,414.10
85972,0.00,6.5,-2.6,58.6,0.8701,-0.0072,-0.0610,-0.4890,-0.22,-0.58,-0.47,43.244384,-0.039981,-4.68,1,414.10
85972,0.00,6.5,-2.6,58.6,0.8701,-0.0072,-0.0610,-0.4890,-0.22,-0.58,-0.47,43.244384,-0.039981,-4.68,1,414.10
85972,0.00,6.5,-2.6,58.6,0.8701,-0.0072,-0.0610,-0.4890,-0.22,-0.58,-0.47,43.244384,-0.039981,-4.68,1,414.10
85972,0.00,6.5,-2.6,58.6,0.8701,-0.0072,-0.0610,-0.4890,-0.22,-0.58,-0.47,43.244384,-0.039981,-4.68,1,414.10
85972,0.00,6.5,-2.6,58.6,0.8701,-0.0072,-0.0610,-0.4890,-0.22,-0.58,-0.47,43.244384,-0.039981,-4.68,1,414.10
85984,0.00,6.3,-2.6,58.7,0.8696,-0.0065,-0.0597,-0.4899,-0.40,-0.50,-0.36,43.244384,-0.039981,-4.68,1,414.10
85984,0.00,6.3,-2.6,58.7,0.8696,-0.0065,-0.0597,-0.4899,-0.40,-0.50,-0.36,43.244384,-0.039981,-4.68,1,414.10
85984,0.00,6.3,-2.6,58.7,0.8696,-0.0065,-0.0597,-0.4899,-0.40,-0.50,-0.36,43.244384,-0.039981,-4.68,1,414.10
85984,0.00,6.3,-2.6,58.7,0.8696,-0.0065,-0.0597,-0.4899,-0.40,-0.50,-0.36,43.244384,-0.039981,-4.68,1,414.10
85984,0.00,6.3,-2.6,58.7,0.8696,-0.0065,-0.0597,-0.4899,-0.40,-0.50,-0.36,43.244384,-0.039981,-4.68,1,414.10
85997,0.00,5.9,-2.7,58.9,0.8690,-0.0044,-0.0573,-0.4913,0.05,-0.37,-0.05,43.244384,-0.039981,-4.83,1,414.10
85997,0.00,5.9,-2.7,58.9,0.8690,-0.0044,-0.0573,-0.4913,0.05,-0.37,-0.05,43.244384,-0.039981,-4.83,1,414.10
85997,0.00,5.9,-2.7,58.9,0.8690,-0.0044,-0.0573,-0.4913,0.05,-0.37,-0.05,43.244384,-0.039981,-4.83,1,414.10
85997,0.00,5.9,-2.7,58.9,0.8690,-0.0044,-0.0573,-0.4913,0.05,-0.37,-0.05,43.244384,-0.039981,-4.83,1,414.10
85997,0.00,5.9,-2.7,58.9,0.8690,-0.0044,-0.0573,-0.4913,0.05,-0.37,-0.05,43.244384,-0.039981,-4.83,1,414.10
86010,0.00,5.8,-2.9,59.0,0.8688,-0.0028,-0.0570,-0.4917,0.05,-0.37,-0.05,43.244384,-0.039981,-4.83,1,414.10
86010,0.00,5.8,-2.9,59.0,0.8688,-0.0028,-0.0570,-0.4917,0.05,-0.37,-0.05,43.244384,-0.039981,-4.83,1,414.10
86010,0.00,5.8,-2.9,59.0,0.8688,-0.0028,-0.0570,-0.4917,0.05,-0.37,-0.05,43.244384,-0.039981,-4.83,1,414.10
86010,0.00,5.8,-2.9,59.0,0.8688,-0.0028,-0.0570,-0.4917,0.05,-0.37,-0.05,43.244384,-0.039981,-4.83,1,414.10
86010,0.00,5.8,-2.9,59.0,0.8688,-0.0028,-0.0570,-0.4917,0.05,-0.37,-0.05,43.244384,-0.039981,-4.83,1,414.10
86023,0.00,5.7,-3.1,58.9,0.8690,-0.0006,-0.0573,-0.4915,-0.07,-0.36,0.38,43.244384,-0.039981,-4.83,1,414.10
86023,0.00,5.7,-3.1,58.9,0.8690,-0.0006,-0.0573,-0.4915,-0.07,-0.36,0.38,43.244384,-0.039981,-4.83,1,414.10
86023,0.00,5.7,-3.1,58.9,0.8690,-0.0006,-0.0573,-0.4915,-0.07,-0.36,0.38,43.244384,-0.039981,-4.83,1,414.10
86023,0.00,5.7,-3.1,58.9,0.8690,-0.0006,-0.0573,-0.4915,-0.07,-0.36,0.38,43.244384,-0.039981,-4.83,1,414.10
86023,0.00,5.7,-3.1,58.9,0.8690,-0.0006,-0.0573,-0.4915,-0.07,-0.36,0.38,43.244384,-0.039981,-4.83,1,414.10
86035,0.00,5.6,-3.7,58.5,0.8707,0.0043,-0.0590,-0.4882,0.60,-0.95,0.63,43.244384,-0.039981,-4.83,1,414.10
86035,0.00,5.6,-3.7,58.5,0.8707,0.0043,-0.0590,-0.4882,0.60,-0.95,0.63,43.244384,-0.039981,-4.83,1,414.10
86035,0.00,5.6,-3.7,58.5,0.8707,0.0043,-0.0590,-0.4882,0.60,-0.95,0.63,43.244384,-0.039981,-4.83,1,414.10
86035,0.00,5.6,-3.7,58.5,0.8707,0.0043,-0.0590,-0.4882,0.60,-0.95,0.63,43.244384,-0.039981,-4.83,1,414.10
86035,0.00,5.6,-3.7,58.5,0.8707,0.0043,-0.0590,-0.4882,0.60,-0.95,0.63,43.244384,-0.039981,-4.83,1,414.10
86048,0.00,5.6,-4.0,58.2,0.8718,0.0067,-0.0600,-0.4860,0.57,-0.55,-0.05,43.244384,-0.039981,-5.00,1,414.10
86048,0.00,5.6,-4.0,58.2,0.8718,0.0067,-0.0600,-0.4860,0.57,-0.55,-0.05,43.244384,-0.039981,-5.00,1,414.10
86048,0.00,5.6,-4.0,58.2,0.8718,0.0067,-0.0600,-0.4860,0.57,-0.55,-0.05,43.244384,-0.039981,-5.00,1,414.10
86048,0.00,5.6,-4.0,58.2,0.8718,0.0067,-0.0600,-0.4860,0.57,-0.55,-0.05,43.244384,-0.039981,-5.00,1,414.10
86048,0.00,5.6,-4.0,58.2,0.8718,0.0067,-0.0600,-0.4860,0.57,-0.55,-0.05,43.244384,-0.039981,-5.00,1,414.10
86061,0.00,5.8,-4.0,58.0,0.8724,0.0059,-0.0619,-0.4847,0.57,-0.55,-0.05,43.244384,-0.039981,-5.00,1,414.10
86061,0.00,5.8,-4.0,58.0,0.8724,0.0059,-0.0619,-0.4847,0.57,-0.55,-0.05,43.244384,-0.039981,-5.00,1,414.10
86061,0.00,5.8,-4.0,58.0,0.8724,0.0059,-0.0619,-0.4847,0.57,-0.55,-0.05,43.244384,-0.039981,-5.00,1,414.10
86061,0.00,5.8,-4.0,58.0,0.8724,0.0059,-0.0619,-0.4847,0.57,-0.55,-0.05,43.244384,-0.039981,-5.00,1,414.10
86061,0.00,5.8,-4.0,58.0,0.8724,0.0059,-0.0619,-0.4847,0.57,-0.55,-0.05,43.244384,-0.039981,-5.00,1,414.10
86074,0.00,6.2,-3.8,58.2,0.8715,0.0023,-0.0642,-0.4860,-0.22,-0.37,0.00,43.244384,-0.039981,-5.00,1,414.10
86074,0.00,6.2,-3.8,58.2,0.8715,0.0023,-0.0642,-0.4860,-0.22,-0.37,0.00,43.244384,-0.039981,-5.00,1,414.10
86074,0.00,6.2,-3.8,58.2,0.8715,0.0023,-0.0642,-0.4860,-0.22,-0.37,0.00,43.244384,-0.039981,-5.00,1,414.10
86074,0.00,6.2,-3.8,58.2,0.8715,0.0023,-0.0642,-0.4860,-0.22,-0.37,0.00,43.244384,-0.039981,-5.00,1,414.10
86074,0.00,6.2,-3.8,58.2,0.8715,0.0023,-0.0642,-0.4860,-0.22,-0.37,0.00,43.244384,-0.039981,-5.00,1,414.10
86086,0.00,7.0,-3.3,59.3,0.8648,-0.0078,-0.0698,-0.4970,-0.11,0.13,-0.20,43.244384,-0.039981,-5.00,1,414.10
86086,0.00,7.0,-3.3,59.3,0.8648,-0.0078,-0.0698,-0.4970,-0.11,0.13,-0.20,43.244384,-0.039981,-5.00,1,414.10
86086,0.00,7.0,-3.3,59.3,0.8648,-0.0078,-0.0698,-0.4970,-0.11,0.13,-0.20,43.244384,-0.039981,-5.00,1,414.10
86086,0.00,7.0,-3.3,59.3,0.8648,-0.0078,-0.0698,-0.4970,-0.11,0.13,-0.20,43.244384,-0.039981,-5.00,1,414.10
86086,0.00,7.0,-3.3,59.3,0.8648,-0.0078,-0.0698,-0.4970,-0.11,0.13,-0.20,43.244384,-0.039981,-5.00,1,414.10
86099,0.00,7.3,-3.1,59.7,0.8634,-0.0097,-0.0718,-0.4992,-0.05,0.22,-0.00,43.244384,-0.039981,-5.16,1,414.10
86099,0.00,7.3,-3.1,59.7,0.8634,-0.0097,-0.0718,-0.4992,-0.05,0.22,-0.00,43.244384,-0.039981,-5.16,1,414.10
86099,0.00,7.3,-3.1,59.7,0.8634,-0.0097,-0.0718,-0.4992,-0.05,0.22,-0.00,43.244384,-0.039981,-5.16,1,414.10
86099,0.00,7.3,-3.1,59.7,0.8634,-0.0097,-0.0718,-0.4992,-0.05,0.22,-0.00,43.244384,-0.039981,-5.16,1,414.10
86099,0.00,7.3,-3.1,59.7,0.8634,-0.0097,-0.0718,-0.4992,-0.05,0.22,-0.00,43.244384,-0.039981,-5.16,1,414.10
86112,0.00,7.6,-3.1,60.0,0.8634,-0.0097,-0.0718,-0.4992,0.20,0.23,0.07,43.244384,-0.039981,-5.16,1,414.10
86112,0.00,7.6,-3.1,60.0,0.8634,-0.0097,-0.0718,-0.4992,0.20,0.23,0.07,43.244384,-0.039981,-5.16,1,414.10
86112,0.00,7.6,-3.1,60.0,0.8634,-0.0097,-0.0718,-0.4992,0.20,0.23,0.07,43.244384,-0.039981,-5.16,1,414.10
86112,0.00,7.6,-3.1,60.0,0.8634,-0.0097,-0.0718,-0.4992,0.20,0.23,0.07,43.244384,-0.039981,-5.16,1,414.10
86112,0.00,7.6,-3.1,60.0,0.8634,-0.0097,-0.0718,-0.4992,0.20,0.23,0.07,43.244384,-0.039981,-5.16,1,414.10
86125,0.00,7.9,-3.1,60.2,0.8624,-0.0107,-0.0739,-0.5006,0.36,0.07,0.20,43.244384,-0.039981,-5.16,1,414.10
86125,0.00,7.9,-3.1,60.2,0.8624,-0.0107,-0.0739,-0.5006,0.36,0.07,0.20,43.244384,-0.039981,-5.16,1,414.10
86125,0.00,7.9,-3.1,60.2,0.8624,-0.0107,-0.0739,-0.5006,0.36,0.07,0.20,43.244384,-0.039981,-5.16,1,414.10
86125,0.00,7.9,-3.1,60.2,0.8624,-0.0107,-0.0739,-0.5006,0.36,0.07,0.20,43.244384,-0.039981,-5.16,1,414.10
86125,0.00,7.9,-3.1,60.2,0.8624,-0.0107,-0.0739,-0.5006,0.36,0.07,0.20,43.244384,-0.039981,-5.16,1,414.10
86138,0.00,8.6,-3.4,60.5,0.8608,-0.0123,-0.0809,-0.5022,0.09,-0.00,0.57,43.244384,-0.039981,-5.16,1,414.10
86138,0.00,8.6,-3.4,60.5,0.8608,-0.0123,-0.0809,-0.5022,0.09,-0.00,0.57,43.244384,-0.039981,-5.16,1,414.10
86138,0.00,8.6,-3.4,60.5,0.8608,-0.0123,-0.0809,-0.5022,0.09,-0.00,0.57,43.244384,-0.039981,-5.16,1,414.10
86138,0.00,8.6,-3.4,60.5,0.8608,-0.0123,-0.0809,-0.5022,0.09,-0.00,0.57,43.244384,-0.039981,-5.16,1,414.10
86138,0.00,8.6,-3.4,60.5,0.8608,-0.0123,-0.0809,-0.5022,0.09,-0.00,0.57,43.244384,-0.039981,-5.16,1,414.10
86150,0.00,8.9,-3.5,60.5,0.8605,-0.0126,-0.0830,-0.5023,0.12,-0.02,0.36,43.244384,-0.039981,-5.33,1,414.10
86150,0.00,8.9,-3.5,60.5,0.8605,-0.0126,-0.0830,-0.5023,0.12,-0.02,0.36,43.244384,-0.039981,-5.33,1,414.10
86150,0.00,8.9,-3.5,60.5,0.8605,-0.0126,-0.0830,-0.5023,0.12,-0.02,0.36,43.244384,-0.039981,-5.33,1,414.10
86150,0.00,8.9,-3.5,60.5,0.8605,-0.0126,-0.0830,-0.5023,0.12,-0.02,0.36,43.244384,-0.039981,-5.33,1,414.10
86150,0.00,8.9,-3.5,60.5,0.8605,-0.0126,-0.0830,-0.5023,0.12,-0.02,0.36,43.244384,-0.039981,-5.33,1,414.10
86163,0.00,9.1,-3.6,60.5,0.8604,-0.0125,-0.0855,-0.5021,0.00,0.20,0.20,43.244384,-0.039981,-5.33,1,414.10
86163,0.00,9.1,-3.6,60.5,0.8604,-0.0125,-0.0855,-0.5021,0.00,0.20,0.20,43.244384,-0.039981,-5.33,1,414.10
86163,0.00,9.1,-3.6,60.5,0.8604,-0.0125,-0.0855,-0.5021,0.00,0.20,0.20,43.244384,-0.039981,-5.33,1,414.10
86163,0.00,9.1,-3.6,60.5,0.8604,-0.0125,-0.0855,-0.5021,0.00,0.20,0.20,43.244384,-0.039981,-5.33,1,414.10
86163,0.00,9.1,-3.6,60.5,0.8604,-0.0125,-0.0855,-0.5021,0.00,0.20,0.20,43.244384,-0.039981,-5.33,1,414.10
86176,0.00,9.3,-3.9,60.3,0.8606,-0.0116,-0.0881,-0.5012,0.01,-0.10,-0.07,43.244384,-0.039981,-5.33,1,414.10
86176,0.00,9.3,-3.9,60.3,0.8606,-0.0116,-0.0881,-0.5012,0.01,-0.10,-0.07,43.244384,-0.039981,-5.33,1,414.10
86176,0.00,9.3,-3.9,60.3,0.8606,-0.0116,-0.0881,-0.5012,0.01,-0.10,-0.07,43.244384,-0.039981,-5.33,1,414.10
86176,0.00,9.3,-3.9,60.3,0.8606,-0.0116,-0.0881,-0.5012,0.01,-0.10,-0.07,43.244384,-0.039981,-5.33,1,414.10
86176,0.00,9.3,-3.9,60.3,0.8606,-0.0116,-0.0881,-0.5012,0.01,-0.10,-0.07,43.244384,-0.039981,-5.33,1,414.10
86188,0.00,9.8,-4.4,59.8,0.8625,-0.0095,-0.0941,-0.4970,-0.34,-0.03,-0.28,43.244384,-0.039981,-5.33,1,414.20
86188,0.00,9.8,-4.4,59.8,0.8625,-0.0095,-0.0941,-0.4970,-0.34,-0.03,-0.28,43.244384,-0.039981,-5.33,1,414.20
86188,0.00,9.8,-4.4,59.8,0.8625,-0.0095,-0.0941,-0.4970,-0.34,-0.03,-0.28,43.244384,-0.039981,-5.33,1,414.20
86188,0.00,9.8,-4.4,59.8,0.8625,-0.0095,-0.0941,-0.4970,-0.34,-0.03,-0.28,43.244384,-0.039981,-5.33,1,414.20
86188,0.00,9.8,-4.4,59.8,0.8625,-0.0095,-0.0941,-0.4970,-0.34,-0.03,-0.28,43.244384,-0.039981,-5.33,1,414.20
86201,0.00,10.2,-4.6,59.6,0.8630,-0.0092,-0.0979,-0.4955,-0.10,0.31,-0.35,43.244384,-0.039981,-5.48,1,414.20
86201,0.00,10.2,-4.6,59.6,0.8630,-0.0092,-0.0979,-0.4955,-0.10,0.31,-0.35,43.244384,-0.039981,-5.48,1,414.20
86201,0.00,10.2,-4.6,59.6,0.8630,-0.0092,-0.0979,-0.4955,-0.10,0.31,-0.35,43.244384,-0.039981,-5.48,1,414.20
86201,0.00,10.2,-4.6,59.6,0.8630,-0.0092,-0.0979,-0.4955,-0.10,0.31,-0.35,43.244384,-0.039981,-5.48,1,414.20
86201,0.00,10.2,-4.6,59.6,0.8630,-0.0092,-0.0979,-0.4955,-0.10,0.31,-0.35,43.244384,-0.039981,-5.48,1,414.20
86214,0.00,10.6,-5.1,59.7,0.8623,-0.0078,-0.1028,-0.4957,0.11,0.49,-0.09,43.244384,-0.039981,-5.48,1,414.20
86214,0.00,10.6,-5.1,59.7,0.8623,-0.0078,-0.1028,-0.4957,0.11,0.49,-0.09,43.244384,-0.039981,-5.48,1,414.20
86214,0.00,10.6,-5.1,59.7,0.8623,-0.0078,-0.1028,-0.4957,0.11,0.49,-0.09,43.244384,-0.039981,-5.48,1,414.20
86214,0.00,10.6,-5.1,59.7,0.8623,-0.0078,-0.1028,-0.4957,0.11,0.49,-0.09,43.244384,-0.039981,-5.48,1,414.20
86214,0.00,10.6,-5.1,59.7,0.8623,-0.0078,-0.1028,-0.4957,0.11,0.49,-0.09,43.244384,-0.039981,-5.48,1,414.20
86227,0.00,11.0,-5.6,59.8,0.8616,-0.0055,-0.1085,-0.4957,-0.13,0.22,-0.17,43.244384,-0.039981,-5.48,1,414.20
86227,0.00,11.0,-5.6,59.8,0.8616,-0.0055,-0.1085,-0.4957,-0.13,0.22,-0.17,43.244384,-0.039981,-5.48,1,414.20
86227,0.00,11.0,-5.6,59.8,0.8616,-0.0055,-0.1085,-0.4957,-0.13,0.22,-0.17,43.244384,-0.039981,-5.48,1,414.20
86227,0.00,11.0,-5.6,59.8,0.8616,-0.0055,-0.1085,-0.4957,-0.13,0.22,-0.17,43.244384,-0.039981,-5.48,1,414.20
86227,0.00,11.0,-5.6,59.8,0.8616,-0.0055,-0.1085,-0.4957,-0.13,0.22,-0.17,43.244384,-0.039981,-5.48,1,414.20
86239,0.00,11.8,-6.5,59.6,0.8614,-0.0028,-0.1183,-0.4938,0.65,0.33,-1.04,43.244384,-0.039981,-5.48,1,414.20
86239,0.00,11.8,-6.5,59.6,0.8614,-0.0028,-0.1183,-0.4938,0.65,0.33,-1.04,43.244384,-0.039981,-5.48,1,414.20
86239,0.00,11.8,-6.5,59.6,0.8614,-0.0028,-0.1183,-0.4938,0.65,0.33,-1.04,43.244384,-0.039981,-5.48,1,414.20
86239,0.00,11.8,-6.5,59.6,0.8614,-0.0028,-0.1183,-0.4938,0.65,0.33,-1.04,43.244384,-0.039981,-5.48,1,414.20
86239,0.00,11.8,-6.5,59.6,0.8614,-0.0028,-0.1183,-0.4938,0.65,0.33,-1.04,43.244384,-0.039981,-5.48,1,414.20
86252,0.00,12.1,-6.8,59.7,0.8605,-0.0017,-0.1212,-0.4946,0.46,0.91,-1.17,43.244384,-0.039981,-5.64,1,414.20
86252,0.00,12.1,-6.8,59.7,0.8605,-0.0017,-0.1212,-0.4946,0.46,0.91,-1.17,43.244384,-0.039981,-5.64,1,414.20
86252,0.00,12.1,-6.8,59.7,0.8605,-0.0017,-0.1212,-0.4946,0.46,0.91,-1.17,43.244384,-0.039981,-5.64,1,414.20
86252,0.00,12.1,-6.8,59.7,0.8605,-0.0017,-0.1212,-0.4946,0.46,0.91,-1.17,43.244384,-0.039981,-5.64,1,414.20
86252,0.00,12.1,-6.8,59.7,0.8605,-0.0017,-0.1212,-0.4946,0.46,0.91,-1.17,43.244384,-0.039981,-5.64,1,414.20
86265,0.00,12.1,-7.0,59.9,0.8596,-0.0004,-0.1224,-0.4958,0.49,1.01,-1.25,43.244384,-0.039981,-5.64,1,414.20
86265,0.00,12.1,-7.0,59.9,0.8596,-0.0004,-0.1224,-0.4958,0.49,1.01,-1.25,43.244384,-0.039981,-5.64,1,414.20
86265,0.00,12.1,-7.0,59.9,0.8596,-0.0004,-0.1224,-0.4958,0.49,1.01,-1.25,43.244384,-0.039981,-5.64,1,414.20
86265,0.00,12.1,-7.0,59.9,0.8596,-0.0004,-0.1224,-0.4958,0.49,1.01,-1.25,43.244384,-0.039981,-5.64,1,414.20
86265,0.00,12.1,-7.0,59.9,0.8596,-0.0004,-0.1224,-0.4958,0.49,1.01,-1.25,43.244384,-0.039981,-5.64,1,414.20
86278,0.00,12.0,-7.2,60.1,0.8589,0.0014,-0.1223,-0.4971,0.63,0.93,-1.09,43.244384,-0.039981,-5.64,1,414.20
86278,0.00,12.0,-7.2,60.1,0.8589,0.0014,-0.1223,-0.4971,0.63,0.93,-1.09,43.244384,-0.039981,-5.64,1,414.20
86278,0.00,12.0,-7.2,60.1,0.8589,0.0014,-0.1223,-0.4971,0.63,0.93,-1.09,43.244384,-0.039981,-5.64,1,414.20
86278,0.00,12.0,-7.2,60.1,0.8589,0.0014,-0.1223,-0.4971,0.63,0.93,-1.09,43.244384,-0.039981,-5.64,1,414.20
86278,0.00,12.0,-7.2,60.1,0.8589,0.0014,-0.1223,-0.4971,0.63,0.93,-1.09,43.244384,-0.039981,-5.64,1,414.20
86291,0.00,11.3,-7.4,60.5,0.8576,0.0056,-0.1177,-0.5006,0.01,0.50,-0.69,43.244384,-0.039981,-5.64,1,414.20
86291,0.00,11.3,-7.4,60.5,0.8576,0.0056,-0.1177,-0.5006,0.01,0.50,-0.69,43.244384,-0.039981,-5.64,1,414.20
86291,0.00,11.3,-7.4,60.5,0.8576,0.0056,-0.1177,-0.5006,0.01,0.50,-0.69,43.244384,-0.039981,-5.64,1,414.20
86291,0.00,11.3,-7.4,60.5,0.8576,0.0056,-0.1177,-0.5006,0.01,0.50,-0.69,43.244384,-0.039981,-5.64,1,414.20
86291,0.00,11.3,-7.4,60.5,0.8576,0.0056,-0.1177,-0.5006,0.01,0.50,-0.69,43.244384,-0.039981,-5.64,1,414.20
86303,0.00,10.8,-7.4,60.8,0.8565,0.0072,-0.1143,-0.5031,0.07,0.15,-0.93,43.244384,-0.039981,-5.79,1,414.20
86303,0.00,10.8,-7.4,60.8,0.8565,0.0072,-0.1143,-0.5031,0.07,0.15,-0.93,43.244384,-0.039981,-5.79,1,414.20
86303,0.00,10.8,-7.4,60.8,0.8565,0.0072,-0.1143,-0.5031,0.07,0.15,-0.93,43.244384,-0.039981,-5.79,1,414.20
86303,0.00,10.8,-7.4,60.8,0.8565,0.0072,-0.1143,-0.5031,0.07,0.15,-0.93,43.244384,-0.039981,-5.79,1,414.20
86303,0.00,10.8,-7.4,60.8,0.8565,0.0072,-0.1143,-0.5031,0.07,0.15,-0.93,43.244384,-0.039981,-5.79,1,414.20
86316,0.00,10.5,-7.3,61.1,0.8552,0.0081,-0.1119,-0.5058,0.50,-0.31,-0.90,43.244384,-0.039981,-5.79,1,414.20
86316,0.00,10.5,-7.3,61.1,0.8552,0.0081,-0.1119,-0.5058,0.50,-0.31,-0.90,43.244384,-0.039981,-5.79,1,414.20
86316,0.00,10.5,-7.3,61.1,0.8552,0.0081,-0.1119,-0.5058,0.50,-0.31,-0.90,43.244384,-0.039981,-5.79,1,414.20
86316,0.00,10.5,-7.3,61.1,0.8552,0.0081,-0.1119,-0.5058,0.50,-0.31,-0.90,43.244384,-0.039981,-5.79,1,414.20
86316,0.00,10.5,-7.3,61.1,0.8552,0.0081,-0.1119,-0.5058,0.50,-0.31,-0.90,43.244384,-0.039981,-5.79,1,414.20
86329,0.00,10.4,-7.4,61.5,0.8538,0.0084,-0.1111,-0.5085,-0.46,-0.30,-0.00,43.244384,-0.039981,-5.79,1,414.20
86329,0.00,10.4,-7.4,61.5,0.8538,0.0084,-0.1111,-0.5085,-0.46,-0.30,-0.00,43.244384,-0.039981,-5.79,1,414.20
86329,0.00,10.4,-7.4,61.5,0.8538,0.0084,-0.1111,-0.5085,-0.46,-0.30,-0.00,43.244384,-0.039981,-5.79,1,414.20
86329,0.00,10.4,-7.4,61.5,0.8538,0.0084,-0.1111,-0.5085,-0.46,-0.30,-0.00,43.244384,-0.039981,-5.79,1,414.20
86329,0.00,10.4,-7.4,61.5,0.8538,0.0084,-0.1111,-0.5085,-0.46,-0.30,-0.00,43.244384,-0.039981,-5.79,1,414.20
86342,0.00,10.3,-7.5,62.3,0.8501,0.0083,-0.1112,-0.5145,-0.90,-0.65,0.30,43.244384,-0.039981,-5.79,1,414.20
86342,0.00,10.3,-7.5,62.3,0.8501,0.0083,-0.1112,-0.5145,-0.90,-0.65,0.30,43.244384,-0.039981,-5.79,1,414.20
86342,0.00,10.3,-7.5,62.3,0.8501,0.0083,-0.1112,-0.5145,-0.90,-0.65,0.30,43.244384,-0.039981,-5.79,1,414.20
86342,0.00,10.3,-7.5,62.3,0.8501,0.0083,-0.1112,-0.5145,-0.90,-0.65,0.30,43.244384,-0.039981,-5.79,1,414.20
86342,0.00,10.3,-7.5,62.3,0.8501,0.0083,-0.1112,-0.5145,-0.90,-0.65,0.30,43.244384,-0.039981,-5.79,1,414.20
86354,0.00,10.3,-7.5,62.6,0.8486,0.0082,-0.1107,-0.5172,-1.21,-0.79,0.38,43.244384,-0.039981,-5.94,1,414.20
86354,0.00,10.3,-7.5,62.6,0.8486,0.0082,-0.1107,-0.5172,-1.21,-0.79,0.38,43.244384,-0.039981,-5.94,1,414.20
86354,0.00,10.3,-7.5,62.6,0.8486,0.0082,-0.1107,-0.5172,-1.21,-0.79,0.38,43.244384,-0.039981,-5.94,1,414.20
86354,0.00,10.3,-7.5,62.6,0.8486,0.0082,-0.1107,-0.5172,-1.21,-0.79,0.38,43.244384,-0.039981,-5.94,1,414.20
86354,0.00,10.3,-7.5,62.6,0.8486,0.0082,-0.1107,-0.5172,-1.21,-0.79,0.38,43.244384,-0.039981,-5.94,1,414.20
86367,0.00,10.1,-7.5,62.8,0.8477,0.0090,-0.1100,-0.5187,-0.63,-0.44,0.28,43.244384,-0.039981,-5.94,1,414.20
86367,0.00,10.1,-7.5,62.8,0.8477,0.0090,-0.1100,-0.5187,-0.63,-0.44,0.28,43.244384,-0.039981,-5.94,1,414.20
86367,0.00,10.1,-7.5,62.8,0.8477,0.0090,-0.1100,-0.5187,-0.63,-0.44,0.28,43.244384,-0.039981,-5.94,1,414.20
86367,0.00,10.1,-7.5,62.8,0.8477,0.0090,-0.1100,-0.5187,-0.63,-0.44,0.28,43.244384,-0.039981,-5.94,1,414.20
86367,0.00,10.1,-7.5,62.8,0.8477,0.0090,-0.1100,-0.5187,-0.63,-0.44,0.28,43.244384,-0.039981,-5.94,1,414.20
86380,0.00,10.0,-7.6,62.9,0.8476,0.0109,-0.1094,-0.5190,0.33,-0.22,0.00,43.244384,-0.039981,-5.94,1,414.20
86380,0.00,10.0,-7.6,62.9,0.8476,0.0109,-0.1094,-0.5190,0.33,-0.22,0.00,43.244384,-0.039981,-5.94,1,414.20
86380,0.00,10.0,-7.6,62.9,0.8476,0.0109,-0.1094,-0.5190,0.33,-0.22,0.00,43.244384,-0.039981,-5.94,1,414.20
86380,0.00,10.0,-7.6,62.9,0.8476,0.0109,-0.1094,-0.5190,0.33,-0.22,0.00,43.244384,-0.039981,-5.94,1,414.20
86380,0.00,10.0,-7.6,62.9,0.8476,0.0109,-0.1094,-0.5190,0.33,-0.22,0.00,43.244384,-0.039981,-5.94,1,414.20
86393,0.00,9.8,-7.8,62.8,0.8479,0.0133,-0.1091,-0.5186,0.83,0.17,-0.46,43.244384,-0.039980,-5.94,1,414.10
86393,0.00,9.8,-7.8,62.8,0.8479,0.0133,-0.1091,-0.5186,0.83,0.17,-0.46,43.244384,-0.039980,-5.94,1,414.10
86393,0.00,9.8,-7.8,62.8,0.8479,0.0133,-0.1091,-0.5186,0.83,0.17,-0.46,43.244384,-0.039980,-5.94,1,414.10
86393,0.00,9.8,-7.8,62.8,0.8479,0.0133,-0.1091,-0.5186,0.83,0.17,-0.46,43.244384,-0.039980,-5.94,1,414.10
86393,0.01,9.8,-7.8,62.8,0.8479,0.0133,-0.1091,-0.5186,0.83,0.17,-0.46,43.244384,-0.039980,-5.94,1,414.10
86405,0.00,9.8,-8.0,62.7,0.8482,0.0148,-0.1100,-0.5178,0.27,0.76,-1.25,43.244384,-0.039980,-6.06,1,414.10
86405,0.00,9.8,-8.0,62.7,0.8482,0.0148,-0.1100,-0.5178,0.27,0.76,-1.25,43.244384,-0.039980,-6.06,1,414.10
86405,0.01,9.8,-8.0,62.7,0.8482,0.0148,-0.1100,-0.5178,0.27,0.76,-1.25,43.244384,-0.039980,-6.06,1,414.10
86405,0.01,9.8,-8.0,62.7,0.8482,0.0148,-0.1100,-0.5178,0.27,0.76,-1.25,43.244384,-0.039980,-6.06,1,414.10
86405,0.01,9.8,-8.0,62.7,0.8482,0.0148,-0.1100,-0.5178,0.27,0.76,-1.25,43.244384,-0.039980,-6.06,1,414.10
86418,0.00,9.8,-8.0,62.8,0.8480,0.0145,-0.1102,-0.5181,0.41,1.11,-0.91,43.244384,-0.039980,-6.06,1,414.10
86418,0.01,9.8,-8.0,62.8,0.8480,0.0145,-0.1102,-0.5181,0.41,1.11,-0.91,43.244384,-0.039980,-6.06,1,414.10
86418,0.01,9.8,-8.0,62.8,0.8480,0.0145,-0.1102,-0.5181,0.41,1.11,-0.91,43.244384,-0.039980,-6.06,1,414.10
86418,0.01,9.8,-8.0,62.8,0.8480,0.0145,-0.1102,-0.5181,0.41,1.11,-0.91,43.244384,-0.039980,-6.06,1,414.10
86418,0.01,9.8,-8.0,62.8,0.8480,0.0145,-0.1102,-0.5181,0.41,1.11,-0.91,43.244384,-0.039980,-6.06,1,414.10
86431,0.01,9.9,-8.0,62.9,0.8474,0.0134,-0.1101,-0.5191,0.70,0.80,0.93,43.244384,-0.039980,-6.06,1,414.10
86431,0.01,9.9,-8.0,62.9,0.8474,0.0134,-0.1101,-0.5191,0.70,0.80,0.93,43.244384,-0.039980,-6.06,1,414.10
86431,0.01,9.9,-8.0,62.9,0.8474,0.0134,-0.1101,-0.5191,0.70,0.80,0.93,43.244384,-0.039980,-6.06,1,414.10
86431,0.01,9.9,-8.0,62.9,0.8474,0.0134,-0.1101,-0.5191,0.70,0.80,0.93,43.244384,-0.039980,-6.06,1,414.10
86431,0.01,9.9,-8.0,62.9,0.8474,0.0134,-0.1101,-0.5191,0.70,0.80,0.93,43.244384,-0.039980,-6.06,1,414.10
86443,0.01,9.9,-7.8,63.1,0.8464,0.0120,-0.1095,-0.5209,1.02,0.67,0.46,43.244384,-0.039980,-6.06,1,414.10
86443,0.01,9.9,-7.8,63.1,0.8464,0.0120,-0.1095,-0.5209,1.02,0.67,0.46,43.244384,-0.039980,-6.06,1,414.10
86443,0.01,9.9,-7.8,63.1,0.8464,0.0120,-0.1095,-0.5209,1.02,0.67,0.46,43.244384,-0.039980,-6.06,1,414.10
86443,0.01,9.9,-7.8,63.1,0.8464,0.0120,-0.1095,-0.5209,1.02,0.67,0.46,43.244384,-0.039980,-6.06,1,414.10
86443,0.01,9.9,-7.8,63.1,0.8464,0.0120,-0.1095,-0.5209,1.02,0.67,0.46,43.244384,-0.039980,-6.06,1,414.10
86456,0.00,9.7,-8.2,63.5,0.8446,0.0155,-0.1099,-0.5237,-1.27,-0.93,4.38,43.244384,-0.039980,-6.19,1,414.10
86456,0.00,9.7,-8.2,63.5,0.8446,0.0155,-0.1099,-0.5237,-1.27,-0.93,4.38,43.244384,-0.039980,-6.19,1,414.10
86456,0.03,9.7,-8.2,63.5,0.8446,0.0155,-0.1099,-0.5237,-1.27,-0.93,4.38,43.244384,-0.039980,-6.19,1,414.10
86456,0.11,9.7,-8.2,63.5,0.8446,0.0155,-0.1099,-0.5237,-1.27,-0.93,4.38,43.244384,-0.039980,-6.19,1,414.10
86456,0.19,9.7,-8.2,63.5,0.8446,0.0155,-0.1099,-0.5237,-1.27,-0.93,4.38,43.244384,-0.039980,-6.19,1,414.10
86469,0.23,9.6,-9.1,63.5,0.8442,0.0222,-0.1138,-0.5233,-1.60,-1.07,3.95,43.244384,-0.039980,-6.19,1,414.10
86469,0.25,9.6,-9.1,63.5,0.8442,0.0222,-0.1138,-0.5233,-1.60,-1.07,3.95,43.244384,-0.039980,-6.19,1,414.10
86469,0.25,9.6,-9.1,63.5,0.8442,0.0222,-0.1138,-0.5233,-1.60,-1.07,3.95,43.244384,-0.039980,-6.19,1,414.10
86469,0.27,9.6,-9.1,63.5,0.8442,0.0222,-0.1138,-0.5233,-1.60,-1.07,3.95,43.244384,-0.039980,-6.19,1,414.10
86469,0.27,9.6,-9.1,63.5,0.8442,0.0222,-0.1138,-0.5233,-1.60,-1.07,3.95,43.244384,-0.039980,-6.19,1,414.10
86482,0.27,9.8,-10.1,63.3,0.8444,0.0293,-0.1200,-0.5211,-2.43,-0.31,4.15,43.244384,-0.039980,-6.19,1,414.10
86482,0.28,9.8,-10.1,63.3,0.8444,0.0293,-0.1200,-0.5211,-2.43,-0.31,4.15,43.244384,-0.039980,-6.19,1,414.10
86482,0.30,9.8,-10.1,63.3,0.8444,0.0293,-0.1200,-0.5211,-2.43,-0.31,4.15,43.244384,-0.039980,-6.19,1,414.10
86482,0.30,9.8,-10.1,63.3,0.8444,0.0293,-0.1200,-0.5211,-2.43,-0.31,4.15,43.244384,-0.039980,-6.19,1,414.10
86482,0.30,9.8,-10.1,63.3,0.8444,0.0293,-0.1200,-0.5211,-2.43,-0.31,4.15,43.244384,-0.039980,-6.19,1,414.10
86494,0.30,10.0,-11.1,63.1,0.8447,0.0358,-0.1252,-0.5191,-1.96,-0.25,2.56,43.244384,-0.039980,-6.19,1,414.10
86494,0.30,10.0,-11.1,63.1,0.8447,0.0358,-0.1252,-0.5191,-1.96,-0.25,2.56,43.244384,-0.039980,-6.19,1,414.10
86494,0.30,10.0,-11.1,63.1,0.8447,0.0358,-0.1252,-0.5191,-1.96,-0.25,2.56,43.244384,-0.039980,-6.19,1,414.10
86494,0.30,10.0,-11.1,63.1,0.8447,0.0358,-0.1252,-0.5191,-1.96,-0.25,2.56,43.244384,-0.039980,-6.19,1,414.10
86494,0.30,10.0,-11.1,63.1,0.8447,0.0358,-0.1252,-0.5191,-1.96,-0.25,2.56,43.244384,-0.039980,-6.19,1,414.10
86507,0.30,9.6,-12.8,62.8,0.8446,0.0501,-0.1301,-0.5169,-1.08,0.45,-0.66,43.244384,-0.039980,-6.32,1,414.10
86507,0.30,9.6,-12.8,62.8,0.8446,0.0501,-0.1301,-0.5169,-1.08,0.45,-0.66,43.244384,-0.039980,-6.32,1,414.10
86507,0.31,9.6,-12.8,62.8,0.8446,0.0501,-0.1301,-0.5169,-1.08,0.45,-0.66,43.244384,-0.039980,-6.32,1,414.10
86507,0.31,9.6,-12.8,62.8,0.8446,0.0501,-0.1301,-0.5169,-1.08,0.45,-0.66,43.244384,-0.039980,-6.32,1,414.10
86507,0.33,9.6,-12.8,62.8,0.8446,0.0501,-0.1301,-0.5169,-1.08,0.45,-0.66,43.244384,-0.039980,-6.32,1,414.10
86520,0.34,9.1,-13.5,62.7,0.8448,0.0580,-0.1302,-0.5156,-0.11,0.79,-3.64,43.244384,-0.039980,-6.32,1,414.10
86520,0.33,9.1,-13.5,62.7,0.8448,0.0580,-0.1302,-0.5156,-0.11,0.79,-3.64,43.244384,-0.039980,-6.32,1,414.10
86520,0.33,9.1,-13.5,62.7,0.8448,0.0580,-0.1302,-0.5156,-0.11,0.79,-3.64,43.244384,-0.039980,-6.32,1,414.10
86520,0.33,9.1,-13.5,62.7,0.8448,0.0580,-0.1302,-0.5156,-0.11,0.79,-3.64,43.244384,-0.039980,-6.32,1,414.10
86520,0.34,9.1,-13.5,62.7,0.8448,0.0580,-0.1302,-0.5156,-0.11,0.79,-3.64,43.244384,-0.039980,-6.32,1,414.10
86533,0.34,8.6,-14.1,62.6,0.8449,0.0648,-0.1282,-0.5151,-0.46,0.00,-4.40,43.244384,-0.039980,-6.32,1,414.10
86533,0.33,8.6,-14.1,62.6,0.8449,0.0648,-0.1282,-0.5151,-0.46,0.00,-4.40,43.244384,-0.039980,-6.32,1,414.10
86533,0.33,8.6,-14.1,62.6,0.8449,0.0648,-0.1282,-0.5151,-0.46,0.00,-4.40,43.244384,-0.039980,-6.32,1,414.10
86533,0.34,8.6,-14.1,62.6,0.8449,0.0648,-0.1282,-0.5151,-0.46,0.00,-4.40,43.244384,-0.039980,-6.32,1,414.10
86533,0.34,8.6,-14.1,62.6,0.8449,0.0648,-0.1282,-0.5151,-0.46,0.00,-4.40,43.244384,-0.039980,-6.32,1,414.10
86545,0.33,7.9,-14.3,62.7,0.8448,0.0693,-0.1242,-0.5157,-0.83,-0.22,-4.36,43.244384,-0.039980,-6.32,1,414.10
86545,0.33,7.9,-14.3,62.7,0.8448,0.0693,-0.1242,-0.5157,-0.83,-0.22,-4.36,43.244384,-0.039980,-6.32,1,414.10
86545,0.33,7.9,-14.3,62.7,0.8448,0.0693,-0.1242,-0.5157,-0.83,-0.22,-4.36,43.244384,-0.039980,-6.32,1,414.10
86545,0.33,7.9,-14.3,62.7,0.8448,0.0693,-0.1242,-0.5157,-0.83,-0.22,-4.36,43.244384,-0.039980,-6.32,1,414.10
86545,0.34,7.9,-14.3,62.7,0.8448,0.0693,-0.1242,-0.5157,-0.83,-0.22,-4.36,43.244384,-0.039980,-6.32,1,414.10
86558,0.34,6.6,-13.8,63.0,0.8447,0.0718,-0.1129,-0.5181,-1.03,-0.25,-4.32,43.244384,-0.039980,-6.45,1,414.10
86558,0.34,6.6,-13.8,63.0,0.8447,0.0718,-0.1129,-0.5181,-1.03,-0.25,-4.32,43.244384,-0.039980,-6.45,1,414.10
86558,0.34,6.6,-13.8,63.0,0.8447,0.0718,-0.1129,-0.5181,-1.03,-0.25,-4.32,43.244384,-0.039980,-6.45,1,414.10
86558,0.34,6.6,-13.8,63.0,0.8447,0.0718,-0.1129,-0.5181,-1.03,-0.25,-4.32,43.244384,-0.039980,-6.45,1,414.10
86558,0.34,6.6,-13.8,63.0,0.8447,0.0718,-0.1129,-0.5181,-1.03,-0.25,-4.32,43.244384,-0.039980,-6.45,1,414.10
86571,0.34,6.2,-13.4,63.1,0.8448,0.0706,-0.1083,-0.5191,-0.81,-0.47,-4.38,43.244384,-0.039980,-6.45,1,414.10
86571,0.33,6.2,-13.4,63.1,0.8448,0.0706,-0.1083,-0.5191,-0.81,-0.47,-4.38,43.244384,-0.039980,-6.45,1,414.10
86571,0.34,6.2,-13.4,63.1,0.8448,0.0706,-0.1083,-0.5191,-0.81,-0.47,-4.38,43.244384,-0.039980,-6.45,1,414.10
86571,0.34,6.2,-13.4,63.1,0.8448,0.0706,-0.1083,-0.5191,-0.81,-0.47,-4.38,43.244384,-0.039980,-6.45,1,414.10
86571,0.33,6.2,-13.4,63.1,0.8448,0.0706,-0.1083,-0.5191,-0.81,-0.47,-4.38,43.244384,-0.039980,-6.45,1,414.10
86584,0.33,6.2,-13.0,63.1,0.8448,0.0641,-0.1071,-0.5202,0.33,0.65,-3.21,43.244384,-0.039980,-6.45,1,414.10
86584,0.34,6.2,-13.0,63.1,0.8448,0.0641,-0.1071,-0.5202,0.33,0.65,-3.21,43.244384,-0.039980,-6.45,1,414.10
86584,0.34,6.2,-13.0,63.1,0.8448,0.0641,-0.1071,-0.5202,0.33,0.65,-3.21,43.244384,-0.039980,-6.45,1,414.10
86584,0.34,6.2,-13.0,63.1,0.8448,0.0641,-0.1071,-0.5202,0.33,0.65,-3.21,43.244384,-0.039980,-6.45,1,414.10
86584,0.34,6.2,-13.0,63.1,0.8448,0.0641,-0.1071,-0.5202,0.33,0.65,-3.21,43.244384,-0.039980,-6.45,1,414.10
86596,0.34,7.0,-12.6,63.3,0.8435,0.0579,-0.1159,-0.5212,0.91,0.70,-0.60,43.244384,-0.039980,-6.45,1,414.10
86596,0.34,7.0,-12.6,63.3,0.8435,0.0579,-0.1159,-0.5212,0.91,0.70,-0.60,43.244384,-0.039980,-6.45,1,414.10
86596,0.34,7.0,-12.6,63.3,0.8435,0.0579,-0.1159,-0.5212,0.91,0.70,-0.60,43.244384,-0.039980,-6.45,1,414.10
86596,0.34,7.0,-12.6,63.3,0.8435,0.0579,-0.1159,-0.5212,0.91,0.70,-0.60,43.244384,-0.039980,-6.45,1,414.10
86596,0.33,7.0,-12.6,63.3,0.8435,0.0579,-0.1159,-0.5212,0.91,0.70,-0.60,43.244384,-0.039980,-6.45,1,414.10
86609,0.33,7.7,-12.7,63.3,0.8435,0.0579,-0.1159,-0.5212,0.91,0.70,-0.60,43.244384,-0.039980,-6.56,1,414.10
86609,0.33,7.7,-12.7,63.3,0.8435,0.0579,-0.1159,-0.5212,0.91,0.70,-0.60,43.244384,-0.039980,-6.56,1,414.10
86609,0.33,7.7,-12.7,63.3,0.8435,0.0579,-0.1159,-0.5212,0.91,0.70,-0.60,43.244384,-0.039980,-6.56,1,414.10
86609,0.34,7.7,-12.7,63.3,0.8435,0.0579,-0.1159,-0.5212,0.91,0.70,-0.60,43.244384,-0.039980,-6.56,1,414.10
86609,0.34,7.7,-12.7,63.3,0.8435,0.0579,-0.1159,-0.5212,0.91,0.70,-0.60,43.244384,-0.039980,-6.56,1,414.10
86622,0.34,8.4,-12.7,63.5,0.8427,0.0549,-0.1213,-0.5216,0.50,0.60,-0.54,43.244384,-0.039980,-6.56,1,414.10
86622,0.34,8.4,-12.7,63.5,0.8427,0.0549,-0.1213,-0.5216,0.50,0.60,-0.54,43.244384,-0.039980,-6.56,1,414.10
86622,0.34,8.4,-12.7,63.5,0.8427,0.0549,-0.1213,-0.5216,0.50,0.60,-0.54,43.244384,-0.039980,-6.56,1,414.10
86622,0.34,8.4,-12.7,63.5,0.8427,0.0549,-0.1213,-0.5216,0.50,0.60,-0.54,43.244384,-0.039980,-6.56,1,414.10
86622,0.34,8.4,-12.7,63.5,0.8427,0.0549,-0.1213,-0.5216,0.50,0.60,-0.54,43.244384,-0.039980,-6.56,1,414.10
86635,0.34,9.0,-12.7,63.6,0.8408,0.0482,-0.1291,-0.5234,-0.50,0.75,-1.97,43.244384,-0.039980,-6.56,1,414.10
86635,0.34,9.0,-12.7,63.6,0.8408,0.0482,-0.1291,-0.5234,-0.50,0.75,-1.97,43.244384,-0.039980,-6.56,1,414.10
86635,0.34,9.0,-12.7,63.6,0.8408,0.0482,-0.1291,-0.5234,-0.50,0.75,-1.97,43.244384,-0.039980,-6.56,1,414.10
86635,0.34,9.0,-12.7,63.6,0.8408,0.0482,-0.1291,-0.5234,-0.50,0.75,-1.97,43.244384,-0.039980,-6.56,1,414.10
86635,0.34,9.0,-12.7,63.6,0.8408,0.0482,-0.1291,-0.5234,-0.50,0.75,-1.97,43.244384,-0.039980,-6.56,1,414.10
86647,0.33,9.9,-12.4,63.9,0.8397,0.0404,-0.1317,-0.5252,-1.12,1.44,-2.31,43.244384,-0.039980,-6.56,1,414.10
86647,0.34,9.9,-12.4,63.9,0.8397,0.0404,-0.1317,-0.5252,-1.12,1.44,-2.31,43.244384,-0.039980,-6.56,1,414.10
86647,0.34,9.9,-12.4,63.9,0.8397,0.0404,-0.1317,-0.5252,-1.12,1.44,-2.31,43.244384,-0.039980,-6.56,1,414.10
86647,0.34,9.9,-12.4,63.9,0.8397,0.0404,-0.1317,-0.5252,-1.12,1.44,-2.31,43.244384,-0.039980,-6.56,1,414.10
86647,0.33,9.9,-12.4,63.9,0.8397,0.0404,-0.1317,-0.5252,-1.12,1.44,-2.31,43.244384,-0.039980,-6.56,1,414.10
86660,0.31,10.2,-12.0,64.0,0.8397,0.0404,-0.1317,-0.5252,-1.12,1.44,-2.31,43.244384,-0.039980,-6.67,1,414.10
86660,0.31,10.2,-12.0,64.0,0.8397,0.0404,-0.1317,-0.5252,-1.12,1.44,-2.31,43.244384,-0.039980,-6.67,1,414.10
86660,0.31,10.2,-12.0,64.0,0.8397,0.0404,-0.1317,-0.5252,-1.12,1.44,-2.31,43.244384,-0.039980,-6.67,1,414.10
86660,0.31,10.2,-12.0,64.0,0.8397,0.0404,-0.1317,-0.5252,-1.12,1.44,-2.31,43.244384,-0.039980,-6.67,1,414.10
86660,0.31,10.2,-12.0,64.0,0.8397,0.0404,-0.1317,-0.5252,-1.12,1.44,-2.31,43.244384,-0.039980,-6.67,1,414.10
86673,0.30,10.5,-11.5,64.0,0.8399,0.0352,-0.1314,-0.5253,-1.14,1.76,-2.44,43.244384,-0.039980,-6.67,1,414.10
86673,0.30,10.5,-11.5,64.0,0.8399,0.0352,-0.1314,-0.5253,-1.14,1.76,-2.44,43.244384,-0.039980,-6.67,1,414.10
86673,0.30,10.5,-11.5,64.0,0.8399,0.0352,-0.1314,-0.5253,-1.14,1.76,-2.44,43.244384,-0.039980,-6.67,1,414.10
86673,0.30,10.5,-11.5,64.0,0.8399,0.0352,-0.1314,-0.5253,-1.14,1.76,-2.44,43.244384,-0.039980,-6.67,1,414.10
86673,0.30,10.5,-11.5,64.0,0.8399,0.0352,-0.1314,-0.5253,-1.14,1.76,-2.44,43.244384,-0.039980,-6.67,1,414.10
86686,0.30,11.5,-9.8,63.5,0.8425,0.0192,-0.1307,-0.5222,0.46,0.95,-1.37,43.244384,-0.039980,-6.67,1,414.10
86686,0.30,11.5,-9.8,63.5,0.8425,0.0192,-0.1307,-0.5222,0.46,0.95,-1.37,43.244384,-0.039980,-6.67,1,414.10
86686,0.30,11.5,-9.8,63.5,0.8425,0.0192,-0.1307,-0.5222,0.46,0.95,-1.37,43.244384,-0.039980,-6.67,1,414.10
86686,0.28,11.5,-9.8,63.5,0.8425,0.0192,-0.1307,-0.5222,0.46,0.95,-1.37,43.244384,-0.039980,-6.67,1,414.10
86686,0.28,11.5,-9.8,63.5,0.8425,0.0192,-0.1307,-0.5222,0.46,0.95,-1.37,43.244384,-0.039980,-6.67,1,414.10
86699,0.28,13.2,-7.9,62.6,0.8464,-0.0020,-0.1341,-0.5153,-0.23,0.95,-0.12,43.244384,-0.039980,-6.67,1,414.10
86699,0.28,13.2,-7.9,62.6,0.8464,-0.0020,-0.1341,-0.5153,-0.23,0.95,-0.12,43.244384,-0.039980,-6.67,1,414.10
86699,0.28,13.2,-7.9,62.6,0.8464,-0.0020,-0.1341,-0.5153,-0.23,0.95,-0.12,43.244384,-0.039980,-6.67,1,414.10
86699,0.28,13.2,-7.9,62.6,0.8464,-0.0020,-0.1341,-0.5153,-0.23,0.95,-0.12,43.244384,-0.039980,-6.67,1,414.10
86699,0.27,13.2,-7.9,62.6,0.8464,-0.0020,-0.1341,-0.5153,-0.23,0.95,-0.12,43.244384,-0.039980,-6.67,1,414.10
86711,0.28,13.2,-7.9,62.6,0.8464,-0.0020,-0.1341,-0.5153,0.37,0.76,0.30,43.244384,-0.039980,-6.78,1,414.10
86711,0.28,13.2,-7.9,62.6,0.8464,-0.0020,-0.1341,-0.5153,0.37,0.76,0.30,43.244384,-0.039980,-6.78,1,414.10
86711,0.27,13.2,-7.9,62.6,0.8464,-0.0020,-0.1341,-0.5153,0.37,0.76,0.30,43.244384,-0.039980,-6.78,1,414.10
86711,0.27,13.2,-7.9,62.6,0.8464,-0.0020,-0.1341,-0.5153,0.37,0.76,0.30,43.244384,-0.039980,-6.78,1,414.10
86711,0.27,13.2,-7.9,62.6,0.8464,-0.0020,-0.1341,-0.5153,0.37,0.76,0.30,43.244384,-0.039980,-6.78,1,414.10
86724,0.27,15.3,-5.8,62.1,0.8474,-0.0265,-0.1409,-0.5112,-0.55,0.23,0.41,43.244384,-0.039980,-6.78,1,414.10
86724,0.27,15.3,-5.8,62.1,0.8474,-0.0265,-0.1409,-0.5112,-0.55,0.23,0.41,43.244384,-0.039980,-6.78,1,414.10
86724,0.27,15.3,-5.8,62.1,0.8474,-0.0265,-0.1409,-0.5112,-0.55,0.23,0.41,43.244384,-0.039980,-6.78,1,414.10
86724,0.27,15.3,-5.8,62.1,0.8474,-0.0265,-0.1409,-0.5112,-0.55,0.23,0.41,43.244384,-0.039980,-6.78,1,414.10
86724,0.27,15.3,-5.8,62.1,0.8474,-0.0265,-0.1409,-0.5112,-0.55,0.23,0.41,43.244384,-0.039980,-6.78,1,414.10
86737,0.27,16.3,-4.9,62.3,0.8460,-0.0377,-0.1440,-0.5118,-0.90,1.25,0.60,43.244384,-0.039980,-6.78,1,414.10
86737,0.27,16.3,-4.9,62.3,0.8460,-0.0377,-0.1440,-0.5118,-0.90,1.25,0.60,43.244384,-0.039980,-6.78,1,414.10
86737,0.27,16.3,-4.9,62.3,0.8460,-0.0377,-0.1440,-0.5118,-0.90,1.25,0.60,43.244384,-0.039980,-6.78,1,414.10
86737,0.27,16.3,-4.9,62.3,0.8460,-0.0377,-0.1440,-0.5118,-0.90,1.25,0.60,43.244384,-0.039980,-6.78,1,414.10
86737,0.27,16.3,-4.9,62.3,0.8460,-0.0377,-0.1440,-0.5118,-0.90,1.25,0.60,43.244384,-0.039980,-6.78,1,414.10
86749,0.27,18.0,-3.3,62.8,0.8425,-0.0578,-0.1481,-0.5145,-0.07,1.01,-1.27,43.244384,-0.039980,-6.78,1,414.10
86749,0.27,18.0,-3.3,62.8,0.8425,-0.0578,-0.1481,-0.5145,-0.07,1.01,-1.27,43.244384,-0.039980,-6.78,1,414.10
86749,0.27,18.0,-3.3,62.8,0.8425,-0.0578,-0.1481,-0.5145,-0.07,1.01,-1.27,43.244384,-0.039980,-6.78,1,414.10
86749,0.27,18.0,-3.3,62.8,0.8425,-0.0578,-0.1481,-0.5145,-0.07,1.01,-1.27,43.244384,-0.039980,-6.78,1,414.10
86749,0.27,18.0,-3.3,62.8,0.8425,-0.0578,-0.1481,-0.5145,-0.07,1.01,-1.27,43.244384,-0.039980,-6.78,1,414.10
86762,0.27,18.6,-2.4,62.8,0.8418,-0.0670,-0.1495,-0.5141,-0.27,1.55,-1.37,43.244384,-0.039980,-6.89,1,414.10
86762,0.27,18.6,-2.4,62.8,0.8418,-0.0670,-0.1495,-0.5141,-0.27,1.55,-1.37,43.244384,-0.039980,-6.89,1,414.10
86762,0.27,18.6,-2.4,62.8,0.8418,-0.0670,-0.1495,-0.5141,-0.27,1.55,-1.37,43.244384,-0.039980,-6.89,1,414.10
86762,0.27,18.6,-2.4,62.8,0.8418,-0.0670,-0.1495,-0.5141,-0.27,1.55,-1.37,43.244384,-0.039980,-6.89,1,414.10
86762,0.27,18.6,-2.4,62.8,0.8418,-0.0670,-0.1495,-0.5141,-0.27,1.55,-1.37,43.244384,-0.039980,-6.89,1,414.10
86775,0.27,19.4,-1.5,62.6,0.8419,-0.0763,-0.1513,-0.5123,-0.49,1.50,-1.50,43.244384,-0.039980,-6.89,1,414.10
86775,0.27,19.4,-1.5,62.6,0.8419,-0.0763,-0.1513,-0.5123,-0.49,1.50,-1.50,43.244384,-0.039980,-6.89,1,414.10
86775,0.25,19.4,-1.5,62.6,0.8419,-0.0763,-0.1513,-0.5123,-0.49,1.50,-1.50,43.244384,-0.039980,-6.89,1,414.10
86775,0.25,19.4,-1.5,62.6,0.8419,-0.0763,-0.1513,-0.5123,-0.49,1.50,-1.50,43.244384,-0.039980,-6.89,1,414.10
86775,0.25,19.4,-1.5,62.6,0.8419,-0.0763,-0.1513,-0.5123,-0.49,1.50,-1.50,43.244384,-0.039980,-6.89,1,414.10
86788,0.25,20.3,-0.6,62.3,0.8418,-0.0865,-0.1542,-0.5098,0.30,1.74,-2.44,43.244384,-0.039980,-6.89,1,414.10
86788,0.25,20.3,-0.6,62.3,0.8418,-0.0865,-0.1542,-0.5098,0.30,1.74,-2.44,43.244384,-0.039980,-6.89,1,414.10
86788,0.25,20.3,-0.6,62.3,0.8418,-0.0865,-0.1542,-0.5098,0.30,1.74,-2.44,43.244384,-0.039980,-6.89,1,414.10
86788,0.25,20.3,-0.6,62.3,0.8418,-0.0865,-0.1542,-0.5098,0.30,1.74,-2.44,43.244384,-0.039980,-6.89,1,414.10
86788,0.25,20.3,-0.6,62.3,0.8418,-0.0865,-0.1542,-0.5098,0.30,1.74,-2.44,43.244384,-0.039980,-6.89,1,414.10
86800,0.25,22.9,1.3,62.0,0.8397,-0.1121,-0.1651,-0.5049,0.88,2.32,-1.79,43.244384,-0.039980,-6.89,1,414.10
86800,0.25,22.9,1.3,62.0,0.8397,-0.1121,-0.1651,-0.5049,0.88,2.32,-1.79,43.244384,-0.039980,-6.89,1,414.10
86800,0.25,22.9,1.3,62.0,0.8397,-0.1121,-0.1651,-0.5049,0.88,2.32,-1.79,43.244384,-0.039980,-6.89,1,414.10
86800,0.25,22.9,1.3,62.0,0.8397,-0.1121,-0.1651,-0.5049,0.88,2.32,-1.79,43.244384,-0.039980,-6.89,1,414.10
86800,0.25,22.9,1.3,62.0,0.8397,-0.1121,-0.1651,-0.5049,0.88,2.32,-1.79,43.244384,-0.039980,-6.89,1,414.10
86813,0.25,24.5,2.4,62.1,0.8363,-0.1271,-0.1715,-0.5048,1.63,2.24,-1.11,43.244384,-0.039980,-6.98,1,414.10
86813,0.25,24.5,2.4,62.1,0.8363,-0.1271,-0.1715,-0.5048,1.63,2.24,-1.11,43.244384,-0.039980,-6.98,1,414.10
86813,0.25,24.5,2.4,62.1,0.8363,-0.1271,-0.1715,-0.5048,1.63,2.24,-1.11,43.244384,-0.039980,-6.98,1,414.10
86813,0.25,24.5,2.4,62.1,0.8363,-0.1271,-0.1715,-0.5048,1.63,2.24,-1.11,43.244384,-0.039980,-6.98,1,414.10
86813,0.25,24.5,2.4,62.1,0.8363,-0.1271,-0.1715,-0.5048,1.63,2.24,-1.11,43.244384,-0.039980,-6.98,1,414.10
86826,0.25,26.0,3.6,62.6,0.8318,-0.1425,-0.1770,-0.5063,1.51,1.03,1.67,43.244384,-0.039980,-6.98,1,414.10
86826,0.25,26.0,3.6,62.6,0.8318,-0.1425,-0.1770,-0.5063,1.51,1.03,1.67,43.244384,-0.039980,-6.98,1,414.10
86826,0.25,26.0,3.6,62.6,0.8318,-0.1425,-0.1770,-0.5063,1.51,1.03,1.67,43.244384,-0.039980,-6.98,1,414.10
86826,0.25,26.0,3.6,62.6,0.8318,-0.1425,-0.1770,-0.5063,1.51,1.03,1.67,43.244384,-0.039980,-6.98,1,414.10
86826,0.25,26.0,3.6,62.6,0.8318,-0.1425,-0.1770,-0.5063,1.51,1.03,1.67,43.244384,-0.039980,-6.98,1,414.10
86839,0.25,27.1,4.9,63.0,0.8276,-0.1567,-0.1800,-0.5078,0.41,0.50,1.94,43.244384,-0.039980,-6.98,1,414.20
86839,0.25,27.1,4.9,63.0,0.8276,-0.1567,-0.1800,-0.5078,0.41,0.50,1.94,43.244384,-0.039980,-6.98,1,414.20
86839,0.25,27.1,4.9,63.0,0.8276,-0.1567,-0.1800,-0.5078,0.41,0.50,1.94,43.244384,-0.039980,-6.98,1,414.20
86839,0.25,27.1,4.9,63.0,0.8276,-0.1567,-0.1800,-0.5078,0.41,0.50,1.94,43.244384,-0.039980,-6.98,1,414.20
86839,0.25,27.1,4.9,63.0,0.8276,-0.1567,-0.1800,-0.5078,0.41,0.50,1.94,43.244384,-0.039980,-6.98,1,414.20
86851,0.25,28.5,7.5,63.5,0.8219,-0.1811,-0.1784,-0.5095,-1.79,-0.43,0.88,43.244384,-0.039980,-6.98,1,414.20
86851,0.25,28.5,7.5,63.5,0.8219,-0.1811,-0.1784,-0.5095,-1.79,-0.43,0.88,43.244384,-0.039980,-6.98,1,414.20
86851,0.25,28.5,7.5,63.5,0.8219,-0.1811,-0.1784,-0.5095,-1.79,-0.43,0.88,43.244384,-0.039980,-6.98,1,414.20
86851,0.25,28.5,7.5,63.5,0.8219,-0.1811,-0.1784,-0.5095,-1.79,-0.43,0.88,43.244384,-0.039980,-6.98,1,414.20
86851,0.25,28.5,7.5,63.5,0.8219,-0.1811,-0.1784,-0.5095,-1.79,-0.43,0.88,43.244384,-0.039980,-6.98,1,414.20
86864,0.25,28.9,8.6,63.7,0.8197,-0.1909,-0.1766,-0.5102,-2.03,0.38,-0.18,43.244384,-0.039980,-7.08,1,414.20
86864,0.25,28.9,8.6,63.7,0.8197,-0.1909,-0.1766,-0.5102,-2.03,0.38,-0.18,43.244384,-0.039980,-7.08,1,414.20
86864,0.25,28.9,8.6,63.7,0.8197,-0.1909,-0.1766,-0.5102,-2.03,0.38,-0.18,43.244384,-0.039980,-7.08,1,414.20
86864,0.25,28.9,8.6,63.7,0.8197,-0.1909,-0.1766,-0.5102,-2.03,0.38,-0.18,43.244384,-0.039980,-7.08,1,414.20
86864,0.25,28.9,8.6,63.7,0.8197,-0.1909,-0.1766,-0.5102,-2.03,0.38,-0.18,43.244384,-0.039980,-7.08,1,414.20
86877,0.25,29.3,9.8,63.7,0.8182,-0.2001,-0.1757,-0.5093,-1.65,0.63,-0.81,43.244384,-0.039980,-7.08,1,414.20
86877,0.25,29.3,9.8,63.7,0.8182,-0.2001,-0.1757,-0.5093,-1.65,0.63,-0.81,43.244384,-0.039980,-7.08,1,414.20
86877,0.25,29.3,9.8,63.7,0.8182,-0.2001,-0.1757,-0.5093,-1.65,0.63,-0.81,43.244384,-0.039980,-7.08,1,414.20
86877,0.25,29.3,9.8,63.7,0.8182,-0.2001,-0.1757,-0.5093,-1.65,0.63,-0.81,43.244384,-0.039980,-7.08,1,414.20
86877,0.25,29.3,9.8,63.7,0.8182,-0.2001,-0.1757,-0.5093,-1.65,0.63,-0.81,43.244384,-0.039980,-7.08,1,414.20
86890,0.25,30.0,10.8,63.6,0.8170,-0.2091,-0.1760,-0.5076,-1.44,0.88,-1.49,43.244384,-0.039980,-7.08,1,414.20
86890,0.25,30.0,10.8,63.6,0.8170,-0.2091,-0.1760,-0.5076,-1.44,0.88,-1.49,43.244384,-0.039980,-7.08,1,414.20
86890,0.25,30.0,10.8,63.6,0.8170,-0.2091,-0.1760,-0.5076,-1.44,0.88,-1.49,43.244384,-0.039980,-7.08,1,414.20
86890,0.25,30.0,10.8,63.6,0.8170,-0.2091,-0.1760,-0.5076,-1.44,0.88,-1.49,43.244384,-0.039980,-7.08,1,414.20
86890,0.25,30.0,10.8,63.6,0.8170,-0.2091,-0.1760,-0.5076,-1.44,0.88,-1.49,43.244384,-0.039980,-7.08,1,414.20
86903,0.25,31.6,12.5,63.5,0.8132,-0.2268,-0.1829,-0.5037,-0.93,1.70,-2.26,43.244384,-0.039980,-7.08,1,414.20
86903,0.25,31.6,12.5,63.5,0.8132,-0.2268,-0.1829,-0.5037,-0.93,1.70,-2.26,43.244384,-0.039980,-7.08,1,414.20
86903,0.25,31.6,12.5,63.5,0.8132,-0.2268,-0.1829,-0.5037,-0.93,1.70,-2.26,43.244384,-0.039980,-7.08,1,414.20
86903,0.25,31.6,12.5,63.5,0.8132,-0.2268,-0.1829,-0.5037,-0.93,1.70,-2.26,43.244384,-0.039980,-7.08,1,414.20
86903,0.25,31.6,12.5,63.5,0.8132,-0.2268,-0.1829,-0.5037,-0.93,1.70,-2.26,43.244384,-0.039980,-7.08,1,414.20
86915,0.25,32.9,13.3,63.4,0.8104,-0.2364,-0.1893,-0.5013,-0.50,2.05,-2.21,43.244384,-0.039980,-7.16,1,414.10
86915,0.25,32.9,13.3,63.4,0.8104,-0.2364,-0.1893,-0.5013,-0.50,2.05,-2.21,43.244384,-0.039980,-7.16,1,414.10
86915,0.25,32.9,13.3,63.4,0.8104,-0.2364,-0.1893,-0.5013,-0.50,2.05,-2.21,43.244384,-0.039980,-7.16,1,414.10
86915,0.25,32.9,13.3,63.4,0.8104,-0.2364,-0.1893,-0.5013,-0.50,2.05,-2.21,43.244384,-0.039980,-7.16,1,414.10
86915,0.25,32.9,13.3,63.4,0.8104,-0.2364,-0.1893,-0.5013,-0.50,2.05,-2.21,43.244384,-0.039980,-7.16,1,414.10
86928,0.25,34.2,14.0,63.5,0.8067,-0.2462,-0.1965,-0.4999,-0.49,1.66,-2.35,43.244384,-0.039980,-7.16,1,414.10
86928,0.25,34.2,14.0,63.5,0.8067,-0.2462,-0.1965,-0.4999,-0.49,1.66,-2.35,43.244384,-0.039980,-7.16,1,414.10
86928,0.25,34.2,14.0,63.5,0.8067,-0.2462,-0.1965,-0.4999,-0.49,1.66,-2.35,43.244384,-0.039980,-7.16,1,414.10
86928,0.25,34.2,14.0,63.5,0.8067,-0.2462,-0.1965,-0.4999,-0.49,1.66,-2.35,43.244384,-0.039980,-7.16,1,414.10
86928,0.25,34.2,14.0,63.5,0.8067,-0.2462,-0.1965,-0.4999,-0.49,1.66,-2.35,43.244384,-0.039980,-7.16,1,414.10
86941,0.25,35.6,14.7,63.7,0.8022,-0.2562,-0.2039,-0.4990,-1.58,-0.43,-1.88,43.244384,-0.039980,-7.16,1,414.10
86941,0.25,35.6,14.7,63.7,0.8022,-0.2562,-0.2039,-0.4990,-1.58,-0.43,-1.88,43.244384,-0.039980,-7.16,1,414.10
86941,0.25,35.6,14.7,63.7,0.8022,-0.2562,-0.2039,-0.4990,-1.58,-0.43,-1.88,43.244384,-0.039980,-7.16,1,414.10
86941,0.25,35.6,14.7,63.7,0.8022,-0.2562,-0.2039,-0.4990,-1.58,-0.43,-1.88,43.244384,-0.039980,-7.16,1,414.10
86941,0.25,35.6,14.7,63.7,0.8022,-0.2562,-0.2039,-0.4990,-1.58,-0.43,-1.88,43.244384,-0.039980,-7.16,1,414.10
86953,0.25,38.5,16.8,63.5,0.7947,-0.2791,-0.2193,-0.4923,-1.19,-1.63,0.73,43.244384,-0.039980,-7.16,1,414.10
86953,0.25,38.5,16.8,63.5,0.7947,-0.2791,-0.2193,-0.4923,-1.19,-1.63,0.73,43.244384,-0.039980,-7.16,1,414.10
86953,0.25,38.5,16.8,63.5,0.7947,-0.2791,-0.2193,-0.4923,-1.19,-1.63,0.73,43.244384,-0.039980,-7.16,1,414.10
86953,0.25,38.5,16.8,63.5,0.7947,-0.2791,-0.2193,-0.4923,-1.19,-1.63,0.73,43.244384,-0.039980,-7.16,1,414.10
86953,0.25,38.5,16.8,63.5,0.7947,-0.2791,-0.2193,-0.4923,-1.19,-1.63,0.73,43.244384,-0.039980,-7.16,1,414.10
86966,0.25,39.8,18.1,63.1,0.7921,-0.2905,-0.2258,-0.4869,-1.65,-1.09,1.74,43.244384,-0.039980,-7.25,1,414.10
86966,0.25,39.8,18.1,63.1,0.7921,-0.2905,-0.2258,-0.4869,-1.65,-1.09,1.74,43.244384,-0.039980,-7.25,1,414.10
86966,0.25,39.8,18.1,63.1,0.7921,-0.2905,-0.2258,-0.4869,-1.65,-1.09,1.74,43.244384,-0.039980,-7.25,1,414.10
86966,0.25,39.8,18.1,63.1,0.7921,-0.2905,-0.2258,-0.4869,-1.65,-1.09,1.74,43.244384,-0.039980,-7.25,1,414.10
86966,0.25,39.8,18.1,63.1,0.7921,-0.2905,-0.2258,-0.4869,-1.65,-1.09,1.74,43.244384,-0.039980,-7.25,1,414.10
86979,0.25,40.8,19.4,62.7,0.7898,-0.3004,-0.2308,-0.4821,-1.98,-0.86,0.98,43.244384,-0.039980,-7.25,1,414.10
86979,0.25,40.8,19.4,62.7,0.7898,-0.3004,-0.2308,-0.4821,-1.98,-0.86,0.98,43.244384,-0.039980,-7.25,1,414.10
86979,0.25,40.8,19.4,62.7,0.7898,-0.3004,-0.2308,-0.4821,-1.98,-0.86,0.98,43.244384,-0.039980,-7.25,1,414.10
86979,0.25,40.8,19.4,62.7,0.7898,-0.3004,-0.2308,-0.4821,-1.98,-0.86,0.98,43.244384,-0.039980,-7.25,1,414.10
86979,0.25,40.8,19.4,62.7,0.7898,-0.3004,-0.2308,-0.4821,-1.98,-0.86,0.98,43.244384,-0.039980,-7.25,1,414.10
86992,0.25,41.6,20.5,62.5,0.7879,-0.3091,-0.2344,-0.4781,-2.05,-1.65,0.00,43.244384,-0.039980,-7.25,1,414.10
86992,0.25,41.6,20.5,62.5,0.7879,-0.3091,-0.2344,-0.4781,-2.05,-1.65,0.00,43.244384,-0.039980,-7.25,1,414.10
86992,0.25,41.6,20.5,62.5,0.7879,-0.3091,-0.2344,-0.4781,-2.05,-1.65,0.00,43.244384,-0.039980,-7.25,1,414.10
86992,0.25,41.6,20.5,62.5,0.7879,-0.3091,-0.2344,-0.4781,-2.05,-1.65,0.00,43.244384,-0.039980,-7.25,1,414.10
86992,0.25,41.6,20.5,62.5,0.7879,-0.3091,-0.2344,-0.4781,-2.05,-1.65,0.00,43.244384,-0.039980,-7.25,1,414.10
87004,0.25,43.1,22.5,61.5,0.7854,-0.3233,-0.2432,-0.4683,0.00,0.15,-0.45,43.244384,-0.039980,-7.25,1,414.10
87004,0.25,43.1,22.5,61.5,0.7854,-0.3233,-0.2432,-0.4683,0.00,0.15,-0.45,43.244384,-0.039980,-7.25,1,414.10
