tx_timestamp_ms,distance,roll,pitch,yaw,quat_w,quat_x,quat_y,quat_z,accel_x,accel_y,accel_z,latitude,longitude,altitude,flags_raw,gnss_alt
52104,1.70,0.0,0.0,0.0,0.0000,0.0000,0.0000,0.0000,0.00,0.00,0.00,43.242992,-0.040592,0.00,1,427.50
52104,1.71,0.0,0.0,0.0,0.0000,0.0000,0.0000,0.0000,0.00,0.00,0.00,43.242992,-0.040592,0.00,1,427.50
52104,1.71,0.0,0.0,0.0,0.0000,0.0000,0.0000,0.0000,0.00,0.00,0.00,43.242992,-0.040592,0.00,1,427.50
52104,1.70,0.0,0.0,0.0,0.0000,0.0000,0.0000,0.0000,0.00,0.00,0.00,43.242992,-0.040592,0.00,1,427.50
52104,1.70,0.0,0.0,0.0,0.0000,0.0000,0.0000,0.0000,0.00,0.00,0.00,43.242992,-0.040592,0.00,1,427.50
52117,1.70,-2.4,-10.0,73.8,-0.7958,-0.0828,0.0349,0.5987,-0.40,-0.74,-0.25,43.242992,-0.040592,0.00,1,427.50
52117,1.70,-2.4,-10.0,73.8,-0.7958,-0.0828,0.0349,0.5987,-0.40,-0.74,-0.25,43.242992,-0.040592,0.00,1,427.50
52117,1.70,-2.4,-10.0,73.8,-0.7958,-0.0828,0.0349,0.5987,-0.40,-0.74,-0.25,43.242992,-0.040592,0.00,1,427.50
52117,1.69,-2.4,-10.0,73.8,-0.7958,-0.0828,0.0349,0.5987,-0.40,-0.74,-0.25,43.242992,-0.040592,0.00,1,427.50
52117,1.69,-2.4,-10.0,73.8,-0.7958,-0.0828,0.0349,0.5987,-0.40,-0.74,-0.25,43.242992,-0.040592,0.00,1,427.50
52130,1.69,-2.3,-10.5,73.8,-0.7957,-0.0866,0.0384,0.5982,-0.20,-0.20,-0.40,43.242992,-0.040592,0.00,1,427.50
52130,1.69,-2.3,-10.5,73.8,-0.7957,-0.0866,0.0384,0.5982,-0.20,-0.20,-0.40,43.242992,-0.040592,0.00,1,427.50
52130,1.70,-2.3,-10.5,73.8,-0.7957,-0.0866,0.0384,0.5982,-0.20,-0.20,-0.40,43.242992,-0.040592,0.00,1,427.50
52130,1.71,-2.3,-10.5,73.8,-0.7957,-0.0866,0.0384,0.5982,-0.20,-0.20,-0.40,43.242992,-0.040592,0.00,1,427.50
52130,1.71,-2.3,-10.5,73.8,-0.7957,-0.0866,0.0384,0.5982,-0.20,-0.20,-0.40,43.242992,-0.040592,0.00,1,427.50
52142,1.71,-2.3,-10.9,73.8,-0.7952,-0.0885,0.0407,0.5983,0.00,0.12,-0.37,43.242992,-0.040592,0.00,1,427.50
52142,1.70,-2.3,-10.9,73.8,-0.7952,-0.0885,0.0407,0.5983,0.00,0.12,-0.37,43.242992,-0.040592,0.00,1,427.50
52142,1.70,-2.3,-10.9,73.8,-0.7952,-0.0885,0.0407,0.5983,0.00,0.12,-0.37,43.242992,-0.040592,0.00,1,427.50
52142,1.71,-2.3,-10.9,73.8,-0.7952,-0.0885,0.0407,0.5983,0.00,0.12,-0.37,43.242992,-0.040592,0.00,1,427.50
52142,1.70,-2.3,-10.9,73.8,-0.7952,-0.0885,0.0407,0.5983,0.00,0.12,-0.37,43.242992,-0.040592,0.00,1,427.50
52155,1.70,-2.2,-11.1,73.9,-0.7949,-0.0900,0.0427,0.5984,0.28,-0.11,0.19,43.242992,-0.040592,0.76,1,427.50
52155,1.70,-2.2,-11.1,73.9,-0.7949,-0.0900,0.0427,0.5984,0.28,-0.11,0.19,43.242992,-0.040592,0.76,1,427.50
52155,1.70,-2.2,-11.1,73.9,-0.7949,-0.0900,0.0427,0.5984,0.28,-0.11,0.19,43.242992,-0.040592,0.76,1,427.50
52155,1.70,-2.2,-11.1,73.9,-0.7949,-0.0900,0.0427,0.5984,0.28,-0.11,0.19,43.242992,-0.040592,0.76,1,427.50
52155,1.69,-2.2,-11.1,73.9,-0.7949,-0.0900,0.0427,0.5984,0.28,-0.11,0.19,43.242992,-0.040592,0.76,1,427.50
52168,1.70,-2.0,-11.5,73.8,-0.7952,-0.0916,0.0459,0.5974,-0.36,-0.09,0.13,43.242992,-0.040592,0.76,1,427.50
52168,1.69,-2.0,-11.5,73.8,-0.7952,-0.0916,0.0459,0.5974,-0.36,-0.09,0.13,43.242992,-0.040592,0.76,1,427.50
52168,1.69,-2.0,-11.5,73.8,-0.7952,-0.0916,0.0459,0.5974,-0.36,-0.09,0.13,43.242992,-0.040592,0.76,1,427.50
52168,1.69,-2.0,-11.5,73.8,-0.7952,-0.0916,0.0459,0.5974,-0.36,-0.09,0.13,43.242992,-0.040592,0.76,1,427.50
52168,1.69,-2.0,-11.5,73.8,-0.7952,-0.0916,0.0459,0.5974,-0.36,-0.09,0.13,43.242992,-0.040592,0.76,1,427.50
52181,1.69,-1.9,-11.6,73.7,-0.7954,-0.0917,0.0472,0.5972,-0.18,0.05,0.25,43.242992,-0.040592,0.76,1,427.50
52181,1.69,-1.9,-11.6,73.7,-0.7954,-0.0917,0.0472,0.5972,-0.18,0.05,0.25,43.242992,-0.040592,0.76,1,427.50
52181,1.69,-1.9,-11.6,73.7,-0.7954,-0.0917,0.0472,0.5972,-0.18,0.05,0.25,43.242992,-0.040592,0.76,1,427.50
52181,1.69,-1.9,-11.6,73.7,-0.7954,-0.0917,0.0472,0.5972,-0.18,0.05,0.25,43.242992,-0.040592,0.76,1,427.50
52181,1.67,-1.9,-11.6,73.7,-0.7954,-0.0917,0.0472,0.5972,-0.18,0.05,0.25,43.242992,-0.040592,0.76,1,427.50
52193,1.67,-1.8,-11.6,73.7,-0.7955,-0.0916,0.0480,0.5968,0.23,-0.07,0.15,43.242992,-0.040592,0.76,1,427.50
52193,1.67,-1.8,-11.6,73.7,-0.7955,-0.0916,0.0480,0.5968,0.23,-0.07,0.15,43.242992,-0.040592,0.76,1,427.50
52193,1.67,-1.8,-11.6,73.7,-0.7955,-0.0916,0.0480,0.5968,0.23,-0.07,0.15,43.242992,-0.040592,0.76,1,427.50
52193,1.67,-1.8,-11.6,73.7,-0.7955,-0.0916,0.0480,0.5968,0.23,-0.07,0.15,43.242992,-0.040592,0.76,1,427.50
52193,1.69,-1.8,-11.6,73.7,-0.7955,-0.0916,0.0480,0.5968,0.23,-0.07,0.15,43.242992,-0.040592,0.76,1,427.50
52206,1.69,-1.8,-11.7,73.6,-0.7958,-0.0916,0.0487,0.5964,0.34,-0.05,0.02,43.242992,-0.040592,0.78,1,427.50
52206,1.69,-1.8,-11.7,73.6,-0.7958,-0.0916,0.0487,0.5964,0.34,-0.05,0.02,43.242992,-0.040592,0.78,1,427.50
52206,1.67,-1.8,-11.7,73.6,-0.7958,-0.0916,0.0487,0.5964,0.34,-0.05,0.02,43.242992,-0.040592,0.78,1,427.50
52206,1.69,-1.8,-11.7,73.6,-0.7958,-0.0916,0.0487,0.5964,0.34,-0.05,0.02,43.242992,-0.040592,0.78,1,427.50
52206,1.69,-1.8,-11.7,73.6,-0.7958,-0.0916,0.0487,0.5964,0.34,-0.05,0.02,43.242992,-0.040592,0.78,1,427.50
52219,1.69,-1.8,-11.8,73.6,-0.7962,-0.0926,0.0488,0.5958,-0.20,-0.13,0.56,43.242992,-0.040592,0.78,1,427.50
52219,1.69,-1.8,-11.8,73.6,-0.7962,-0.0926,0.0488,0.5958,-0.20,-0.13,0.56,43.242992,-0.040592,0.78,1,427.50
52219,1.69,-1.8,-11.8,73.6,-0.7962,-0.0926,0.0488,0.5958,-0.20,-0.13,0.56,43.242992,-0.040592,0.78,1,427.50
52219,1.69,-1.8,-11.8,73.6,-0.7962,-0.0926,0.0488,0.5958,-0.20,-0.13,0.56,43.242992,-0.040592,0.78,1,427.50
52219,1.67,-1.8,-11.8,73.6,-0.7962,-0.0926,0.0488,0.5958,-0.20,-0.13,0.56,43.242992,-0.040592,0.78,1,427.50
52232,1.69,-1.8,-12.0,73.5,-0.7962,-0.0939,0.0493,0.5955,-0.86,0.27,-0.44,43.242992,-0.040592,0.78,1,427.39
52232,1.69,-1.8,-12.0,73.5,-0.7962,-0.0939,0.0493,0.5955,-0.86,0.27,-0.44,43.242992,-0.040592,0.78,1,427.39
52232,1.69,-1.8,-12.0,73.5,-0.7962,-0.0939,0.0493,0.5955,-0.86,0.27,-0.44,43.242992,-0.040592,0.78,1,427.39
52232,1.67,-1.8,-12.0,73.5,-0.7962,-0.0939,0.0493,0.5955,-0.86,0.27,-0.44,43.242992,-0.040592,0.78,1,427.39
52232,1.69,-1.8,-12.0,73.5,-0.7962,-0.0939,0.0493,0.5955,-0.86,0.27,-0.44,43.242992,-0.040592,0.78,1,427.39
52244,1.69,-1.8,-12.1,73.5,-0.7963,-0.0951,0.0504,0.5952,-0.60,0.40,-0.88,43.242992,-0.040592,0.78,1,427.39
52244,1.67,-1.8,-12.1,73.5,-0.7963,-0.0951,0.0504,0.5952,-0.60,0.40,-0.88,43.242992,-0.040592,0.78,1,427.39
52244,1.67,-1.8,-12.1,73.5,-0.7963,-0.0951,0.0504,0.5952,-0.60,0.40,-0.88,43.242992,-0.040592,0.78,1,427.39
52244,1.67,-1.8,-12.1,73.5,-0.7963,-0.0951,0.0504,0.5952,-0.60,0.40,-0.88,43.242992,-0.040592,0.78,1,427.39
52244,1.67,-1.8,-12.1,73.5,-0.7963,-0.0951,0.0504,0.5952,-0.60,0.40,-0.88,43.242992,-0.040592,0.78,1,427.39
52257,1.67,-1.7,-12.3,73.5,-0.7963,-0.0956,0.0516,0.5949,-0.18,0.18,-0.98,43.242992,-0.040592,0.81,1,427.39
52257,1.67,-1.7,-12.3,73.5,-0.7963,-0.0956,0.0516,0.5949,-0.18,0.18,-0.98,43.242992,-0.040592,0.81,1,427.39
52257,1.67,-1.7,-12.3,73.5,-0.7963,-0.0956,0.0516,0.5949,-0.18,0.18,-0.98,43.242992,-0.040592,0.81,1,427.39
52257,1.69,-1.7,-12.3,73.5,-0.7963,-0.0956,0.0516,0.5949,-0.18,0.18,-0.98,43.242992,-0.040592,0.81,1,427.39
52257,1.67,-1.7,-12.3,73.5,-0.7963,-0.0956,0.0516,0.5949,-0.18,0.18,-0.98,43.242992,-0.040592,0.81,1,427.39
52270,1.67,-1.5,-12.3,73.4,-0.7965,-0.0947,0.0533,0.5946,-0.00,-0.45,-0.60,43.242992,-0.040592,0.81,1,427.39
52270,1.67,-1.5,-12.3,73.4,-0.7965,-0.0947,0.0533,0.5946,-0.00,-0.45,-0.60,43.242992,-0.040592,0.81,1,427.39
52270,1.67,-1.5,-12.3,73.4,-0.7965,-0.0947,0.0533,0.5946,-0.00,-0.45,-0.60,43.242992,-0.040592,0.81,1,427.39
52270,1.69,-1.5,-12.3,73.4,-0.7965,-0.0947,0.0533,0.5946,-0.00,-0.45,-0.60,43.242992,-0.040592,0.81,1,427.39
52270,1.67,-1.5,-12.3,73.4,-0.7965,-0.0947,0.0533,0.5946,-0.00,-0.45,-0.60,43.242992,-0.040592,0.81,1,427.39
52283,1.67,-1.4,-12.3,73.4,-0.7968,-0.0942,0.0538,0.5944,0.02,-0.50,-0.13,43.242992,-0.040592,0.81,1,427.39
52283,1.67,-1.4,-12.3,73.4,-0.7968,-0.0942,0.0538,0.5944,0.02,-0.50,-0.13,43.242992,-0.040592,0.81,1,427.39
52283,1.67,-1.4,-12.3,73.4,-0.7968,-0.0942,0.0538,0.5944,0.02,-0.50,-0.13,43.242992,-0.040592,0.81,1,427.39
52283,1.67,-1.4,-12.3,73.4,-0.7968,-0.0942,0.0538,0.5944,0.02,-0.50,-0.13,43.242992,-0.040592,0.81,1,427.39
52283,1.67,-1.4,-12.3,73.4,-0.7968,-0.0942,0.0538,0.5944,0.02,-0.50,-0.13,43.242992,-0.040592,0.81,1,427.39
52295,1.67,-1.3,-12.3,73.3,-0.7971,-0.0942,0.0546,0.5938,0.35,-0.11,0.10,43.242992,-0.040592,0.81,1,427.39
52295,1.67,-1.3,-12.3,73.3,-0.7971,-0.0942,0.0546,0.5938,0.35,-0.11,0.10,43.242992,-0.040592,0.81,1,427.39
52295,1.66,-1.3,-12.3,73.3,-0.7971,-0.0942,0.0546,0.5938,0.35,-0.11,0.10,43.242992,-0.040592,0.81,1,427.39
52295,1.66,-1.3,-12.3,73.3,-0.7971,-0.0942,0.0546,0.5938,0.35,-0.11,0.10,43.242992,-0.040592,0.81,1,427.39
52295,1.65,-1.3,-12.3,73.3,-0.7971,-0.0942,0.0546,0.5938,0.35,-0.11,0.10,43.242992,-0.040592,0.81,1,427.39
52308,1.65,-1.3,-12.5,73.1,-0.7977,-0.0952,0.0554,0.5928,0.56,0.00,-0.45,43.242992,-0.040592,0.83,1,427.39
52308,1.65,-1.3,-12.5,73.1,-0.7977,-0.0952,0.0554,0.5928,0.56,0.00,-0.45,43.242992,-0.040592,0.83,1,427.39
52308,1.65,-1.3,-12.5,73.1,-0.7977,-0.0952,0.0554,0.5928,0.56,0.00,-0.45,43.242992,-0.040592,0.83,1,427.39
52308,1.65,-1.3,-12.5,73.1,-0.7977,-0.0952,0.0554,0.5928,0.56,0.00,-0.45,43.242992,-0.040592,0.83,1,427.39
52308,1.65,-1.3,-12.5,73.1,-0.7977,-0.0952,0.0554,0.5928,0.56,0.00,-0.45,43.242992,-0.040592,0.83,1,427.39
52321,1.65,-1.4,-12.8,73.0,-0.7987,-0.0974,0.0559,0.5910,0.37,-0.23,-0.43,43.242992,-0.040592,0.83,1,427.39
52321,1.65,-1.4,-12.8,73.0,-0.7987,-0.0974,0.0559,0.5910,0.37,-0.23,-0.43,43.242992,-0.040592,0.83,1,427.39
52321,1.63,-1.4,-12.8,73.0,-0.7987,-0.0974,0.0559,0.5910,0.37,-0.23,-0.43,43.242992,-0.040592,0.83,1,427.39
52321,1.63,-1.4,-12.8,73.0,-0.7987,-0.0974,0.0559,0.5910,0.37,-0.23,-0.43,43.242992,-0.040592,0.83,1,427.39
52321,1.63,-1.4,-12.8,73.0,-0.7987,-0.0974,0.0559,0.5910,0.37,-0.23,-0.43,43.242992,-0.040592,0.83,1,427.39
52334,1.63,-1.6,-13.6,72.4,-0.8009,-0.1044,0.0581,0.5866,0.36,-0.00,0.09,43.242992,-0.040592,0.83,1,427.50
52334,1.61,-1.6,-13.6,72.4,-0.8009,-0.1044,0.0581,0.5866,0.36,-0.00,0.09,43.242992,-0.040592,0.83,1,427.50
52334,1.61,-1.6,-13.6,72.4,-0.8009,-0.1044,0.0581,0.5866,0.36,-0.00,0.09,43.242992,-0.040592,0.83,1,427.50
52334,1.61,-1.6,-13.6,72.4,-0.8009,-0.1044,0.0581,0.5866,0.36,-0.00,0.09,43.242992,-0.040592,0.83,1,427.50
52334,1.60,-1.6,-13.6,72.4,-0.8009,-0.1044,0.0581,0.5866,0.36,-0.00,0.09,43.242992,-0.040592,0.83,1,427.50
52346,1.60,-1.8,-14.1,72.1,-0.8020,-0.1093,0.0593,0.5841,-0.73,0.23,0.34,43.242992,-0.040592,0.83,1,427.50
52346,1.59,-1.8,-14.1,72.1,-0.8020,-0.1093,0.0593,0.5841,-0.73,0.23,0.34,43.242992,-0.040592,0.83,1,427.50
52346,1.60,-1.8,-14.1,72.1,-0.8020,-0.1093,0.0593,0.5841,-0.73,0.23,0.34,43.242992,-0.040592,0.83,1,427.50
52346,1.58,-1.8,-14.1,72.1,-0.8020,-0.1093,0.0593,0.5841,-0.73,0.23,0.34,43.242992,-0.040592,0.83,1,427.50
52346,1.54,-1.8,-14.1,72.1,-0.8020,-0.1093,0.0593,0.5841,-0.73,0.23,0.34,43.242992,-0.040592,0.83,1,427.50
52359,1.55,-2.0,-14.8,71.8,-0.8028,-0.1149,0.0609,0.5817,-1.86,-0.57,0.19,43.242992,-0.040594,0.84,1,427.50
52359,1.63,-2.0,-14.8,71.8,-0.8028,-0.1149,0.0609,0.5817,-1.86,-0.57,0.19,43.242992,-0.040594,0.84,1,427.50
52359,1.76,-2.0,-14.8,71.8,-0.8028,-0.1149,0.0609,0.5817,-1.86,-0.57,0.19,43.242992,-0.040594,0.84,1,427.50
52359,1.84,-2.0,-14.8,71.8,-0.8028,-0.1149,0.0609,0.5817,-1.86,-0.57,0.19,43.242992,-0.040594,0.84,1,427.50
52359,1.86,-2.0,-14.8,71.8,-0.8028,-0.1149,0.0609,0.5817,-1.86,-0.57,0.19,43.242992,-0.040594,0.84,1,427.50
52372,1.86,-2.1,-15.5,71.7,-0.8024,-0.1206,0.0634,0.5809,-0.91,0.80,0.07,43.242992,-0.040594,0.84,1,427.50
52372,1.86,-2.1,-15.5,71.7,-0.8024,-0.1206,0.0634,0.5809,-0.91,0.80,0.07,43.242992,-0.040594,0.84,1,427.50
52372,1.80,-2.1,-15.5,71.7,-0.8024,-0.1206,0.0634,0.5809,-0.91,0.80,0.07,43.242992,-0.040594,0.84,1,427.50
52372,1.72,-2.1,-15.5,71.7,-0.8024,-0.1206,0.0634,0.5809,-0.91,0.80,0.07,43.242992,-0.040594,0.84,1,427.50
52372,1.61,-2.1,-15.5,71.7,-0.8024,-0.1206,0.0634,0.5809,-0.91,0.80,0.07,43.242992,-0.040594,0.84,1,427.50
52385,1.55,-2.3,-16.0,71.8,-0.8017,-0.1246,0.0651,0.5808,-1.07,1.53,-0.37,43.242992,-0.040594,0.84,1,427.50
52385,1.54,-2.3,-16.0,71.8,-0.8017,-0.1246,0.0651,0.5808,-1.07,1.53,-0.37,43.242992,-0.040594,0.84,1,427.50
52385,1.54,-2.3,-16.0,71.8,-0.8017,-0.1246,0.0651,0.5808,-1.07,1.53,-0.37,43.242992,-0.040594,0.84,1,427.50
52385,1.55,-2.3,-16.0,71.8,-0.8017,-0.1246,0.0651,0.5808,-1.07,1.53,-0.37,43.242992,-0.040594,0.84,1,427.50
52385,1.58,-2.3,-16.0,71.8,-0.8017,-0.1246,0.0651,0.5808,-1.07,1.53,-0.37,43.242992,-0.040594,0.84,1,427.50
52397,1.60,-2.2,-15.9,71.8,-0.8014,-0.1240,0.0653,0.5813,-0.95,0.60,-0.70,43.242992,-0.040594,0.84,1,427.50
52397,1.60,-2.2,-15.9,71.8,-0.8014,-0.1240,0.0653,0.5813,-0.95,0.60,-0.70,43.242992,-0.040594,0.84,1,427.50
52397,1.60,-2.2,-15.9,71.8,-0.8014,-0.1240,0.0653,0.5813,-0.95,0.60,-0.70,43.242992,-0.040594,0.84,1,427.50
52397,1.61,-2.2,-15.9,71.8,-0.8014,-0.1240,0.0653,0.5813,-0.95,0.60,-0.70,43.242992,-0.040594,0.84,1,427.50
52397,1.61,-2.2,-15.9,71.8,-0.8014,-0.1240,0.0653,0.5813,-0.95,0.60,-0.70,43.242992,-0.040594,0.84,1,427.50
52410,1.61,-2.0,-15.6,72.0,-0.8013,-0.1210,0.0651,0.5822,-0.50,0.11,-0.41,43.242992,-0.040594,0.85,1,427.50
52410,1.61,-2.0,-15.6,72.0,-0.8013,-0.1210,0.0651,0.5822,-0.50,0.11,-0.41,43.242992,-0.040594,0.85,1,427.50
52410,1.61,-2.0,-15.6,72.0,-0.8013,-0.1210,0.0651,0.5822,-0.50,0.11,-0.41,43.242992,-0.040594,0.85,1,427.50
52410,1.61,-2.0,-15.6,72.0,-0.8013,-0.1210,0.0651,0.5822,-0.50,0.11,-0.41,43.242992,-0.040594,0.85,1,427.50
52410,1.61,-2.0,-15.6,72.0,-0.8013,-0.1210,0.0651,0.5822,-0.50,0.11,-0.41,43.242992,-0.040594,0.85,1,427.50
52423,1.61,-1.8,-15.3,72.0,-0.8012,-0.1177,0.0653,0.5830,-0.01,0.05,-0.22,43.242992,-0.040594,0.85,1,427.50
52423,1.61,-1.8,-15.3,72.0,-0.8012,-0.1177,0.0653,0.5830,-0.01,0.05,-0.22,43.242992,-0.040594,0.85,1,427.50
52423,1.61,-1.8,-15.3,72.0,-0.8012,-0.1177,0.0653,0.5830,-0.01,0.05,-0.22,43.242992,-0.040594,0.85,1,427.50
52423,1.61,-1.8,-15.3,72.0,-0.8012,-0.1177,0.0653,0.5830,-0.01,0.05,-0.22,43.242992,-0.040594,0.85,1,427.50
52423,1.61,-1.8,-15.3,72.0,-0.8012,-0.1177,0.0653,0.5830,-0.01,0.05,-0.22,43.242992,-0.040594,0.85,1,427.50
52436,1.61,-1.5,-15.0,72.0,-0.8013,-0.1147,0.0658,0.5833,0.86,-0.07,-0.75,43.242992,-0.040594,0.85,1,427.39
52436,1.61,-1.5,-15.0,72.0,-0.8013,-0.1147,0.0658,0.5833,0.86,-0.07,-0.75,43.242992,-0.040594,0.85,1,427.39
52436,1.61,-1.5,-15.0,72.0,-0.8013,-0.1147,0.0658,0.5833,0.86,-0.07,-0.75,43.242992,-0.040594,0.85,1,427.39
52436,1.61,-1.5,-15.0,72.0,-0.8013,-0.1147,0.0658,0.5833,0.86,-0.07,-0.75,43.242992,-0.040594,0.85,1,427.39
52436,1.61,-1.5,-15.0,72.0,-0.8013,-0.1147,0.0658,0.5833,0.86,-0.07,-0.75,43.242992,-0.040594,0.85,1,427.39
52448,1.61,-1.1,-14.7,71.8,-0.8026,-0.1102,0.0665,0.5823,1.30,-1.10,-0.88,43.242992,-0.040594,0.85,1,427.39
52448,1.61,-1.1,-14.7,71.8,-0.8026,-0.1102,0.0665,0.5823,1.30,-1.10,-0.88,43.242992,-0.040594,0.85,1,427.39
52448,1.61,-1.1,-14.7,71.8,-0.8026,-0.1102,0.0665,0.5823,1.30,-1.10,-0.88,43.242992,-0.040594,0.85,1,427.39
52448,1.61,-1.1,-14.7,71.8,-0.8026,-0.1102,0.0665,0.5823,1.30,-1.10,-0.88,43.242992,-0.040594,0.85,1,427.39
52448,1.61,-1.1,-14.7,71.8,-0.8026,-0.1102,0.0665,0.5823,1.30,-1.10,-0.88,43.242992,-0.040594,0.85,1,427.39
52461,1.60,-1.1,-14.6,71.7,-0.8032,-0.1102,0.0664,0.5815,1.00,-1.22,-0.68,43.242992,-0.040594,0.86,1,427.39
52461,1.60,-1.1,-14.6,71.7,-0.8032,-0.1102,0.0664,0.5815,1.00,-1.22,-0.68,43.242992,-0.040594,0.86,1,427.39
52461,1.60,-1.1,-14.6,71.7,-0.8032,-0.1102,0.0664,0.5815,1.00,-1.22,-0.68,43.242992,-0.040594,0.86,1,427.39
52461,1.60,-1.1,-14.6,71.7,-0.8032,-0.1102,0.0664,0.5815,1.00,-1.22,-0.68,43.242992,-0.040594,0.86,1,427.39
52461,1.59,-1.1,-14.6,71.7,-0.8032,-0.1102,0.0664,0.5815,1.00,-1.22,-0.68,43.242992,-0.040594,0.86,1,427.39
52474,1.59,-1.3,-14.8,71.6,-0.8034,-0.1118,0.0661,0.5810,0.81,-0.73,-0.67,43.242992,-0.040594,0.86,1,427.39
52474,1.59,-1.3,-14.8,71.6,-0.8034,-0.1118,0.0661,0.5810,0.81,-0.73,-0.67,43.242992,-0.040594,0.86,1,427.39
52474,1.60,-1.3,-14.8,71.6,-0.8034,-0.1118,0.0661,0.5810,0.81,-0.73,-0.67,43.242992,-0.040594,0.86,1,427.39
52474,1.58,-1.3,-14.8,71.6,-0.8034,-0.1118,0.0661,0.5810,0.81,-0.73,-0.67,43.242992,-0.040594,0.86,1,427.39
52474,1.55,-1.3,-14.8,71.6,-0.8034,-0.1118,0.0661,0.5810,0.81,-0.73,-0.67,43.242992,-0.040594,0.86,1,427.39
52487,1.54,-1.8,-15.3,71.8,-0.8025,-0.1179,0.0648,0.5811,0.56,-0.77,-1.03,43.242992,-0.040594,0.86,1,427.39
52487,1.55,-1.8,-15.3,71.8,-0.8025,-0.1179,0.0648,0.5811,0.56,-0.77,-1.03,43.242992,-0.040594,0.86,1,427.39
52487,1.65,-1.8,-15.3,71.8,-0.8025,-0.1179,0.0648,0.5811,0.56,-0.77,-1.03,43.242992,-0.040594,0.86,1,427.39
52487,1.80,-1.8,-15.3,71.8,-0.8025,-0.1179,0.0648,0.5811,0.56,-0.77,-1.03,43.242992,-0.040594,0.86,1,427.39
52487,1.90,-1.8,-15.3,71.8,-0.8025,-0.1179,0.0648,0.5811,0.56,-0.77,-1.03,43.242992,-0.040594,0.86,1,427.39
52499,1.90,-2.2,-15.6,71.8,-0.8018,-0.1221,0.0639,0.5814,0.85,-0.79,-1.01,43.242992,-0.040594,0.86,1,427.39
52499,1.90,-2.2,-15.6,71.8,-0.8018,-0.1221,0.0639,0.5814,0.85,-0.79,-1.01,43.242992,-0.040594,0.86,1,427.39
52499,1.90,-2.2,-15.6,71.8,-0.8018,-0.1221,0.0639,0.5814,0.85,-0.79,-1.01,43.242992,-0.040594,0.86,1,427.39
52499,1.90,-2.2,-15.6,71.8,-0.8018,-0.1221,0.0639,0.5814,0.85,-0.79,-1.01,43.242992,-0.040594,0.86,1,427.39
52499,1.90,-2.2,-15.6,71.8,-0.8018,-0.1221,0.0639,0.5814,0.85,-0.79,-1.01,43.242992,-0.040594,0.86,1,427.39
52512,1.88,-2.6,-16.0,71.9,-0.8008,-0.1273,0.0628,0.5817,0.80,-0.66,-1.12,43.242992,-0.040594,0.86,1,427.39
52512,1.88,-2.6,-16.0,71.9,-0.8008,-0.1273,0.0628,0.5817,0.80,-0.66,-1.12,43.242992,-0.040594,0.86,1,427.39
52512,1.88,-2.6,-16.0,71.9,-0.8008,-0.1273,0.0628,0.5817,0.80,-0.66,-1.12,43.242992,-0.040594,0.86,1,427.39
52512,1.86,-2.6,-16.0,71.9,-0.8008,-0.1273,0.0628,0.5817,0.80,-0.66,-1.12,43.242992,-0.040594,0.86,1,427.39
52512,1.86,-2.6,-16.0,71.9,-0.8008,-0.1273,0.0628,0.5817,0.80,-0.66,-1.12,43.242992,-0.040594,0.86,1,427.39
52525,1.86,-3.2,-16.5,72.0,-0.7996,-0.1336,0.0616,0.5822,0.63,-0.38,-1.25,43.242992,-0.040594,0.86,1,427.39
52525,1.86,-3.2,-16.5,72.0,-0.7996,-0.1336,0.0616,0.5822,0.63,-0.38,-1.25,43.242992,-0.040594,0.86,1,427.39
52525,1.86,-3.2,-16.5,72.0,-0.7996,-0.1336,0.0616,0.5822,0.63,-0.38,-1.25,43.242992,-0.040594,0.86,1,427.39
52525,1.85,-3.2,-16.5,72.0,-0.7996,-0.1336,0.0616,0.5822,0.63,-0.38,-1.25,43.242992,-0.040594,0.86,1,427.39
52525,1.84,-3.2,-16.5,72.0,-0.7996,-0.1336,0.0616,0.5822,0.63,-0.38,-1.25,43.242992,-0.040594,0.86,1,427.39
52538,1.84,-4.5,-17.5,72.4,-0.7966,-0.1463,0.0578,0.5835,-0.74,0.30,-0.73,43.242992,-0.040594,0.86,1,427.39
52538,1.83,-4.5,-17.5,72.4,-0.7966,-0.1463,0.0578,0.5835,-0.74,0.30,-0.73,43.242992,-0.040594,0.86,1,427.39
52538,1.83,-4.5,-17.5,72.4,-0.7966,-0.1463,0.0578,0.5835,-0.74,0.30,-0.73,43.242992,-0.040594,0.86,1,427.39
52538,1.83,-4.5,-17.5,72.4,-0.7966,-0.1463,0.0578,0.5835,-0.74,0.30,-0.73,43.242992,-0.040594,0.86,1,427.39
52538,1.83,-4.5,-17.5,72.4,-0.7966,-0.1463,0.0578,0.5835,-0.74,0.30,-0.73,43.242992,-0.040594,0.86,1,427.39
52550,1.83,-5.1,-17.8,72.6,-0.7951,-0.1521,0.0552,0.5844,-0.69,0.51,-0.72,43.242992,-0.040594,0.86,1,427.39
52550,1.82,-5.1,-17.8,72.6,-0.7951,-0.1521,0.0552,0.5844,-0.69,0.51,-0.72,43.242992,-0.040594,0.86,1,427.39
52550,1.82,-5.1,-17.8,72.6,-0.7951,-0.1521,0.0552,0.5844,-0.69,0.51,-0.72,43.242992,-0.040594,0.86,1,427.39
52550,1.82,-5.1,-17.8,72.6,-0.7951,-0.1521,0.0552,0.5844,-0.69,0.51,-0.72,43.242992,-0.040594,0.86,1,427.39
52550,1.82,-5.1,-17.8,72.6,-0.7951,-0.1521,0.0552,0.5844,-0.69,0.51,-0.72,43.242992,-0.040594,0.86,1,427.39
52563,1.82,-5.7,-18.1,72.8,-0.7933,-0.1574,0.0526,0.5856,-0.69,0.51,-0.72,43.242992,-0.040594,0.88,1,427.39
52563,1.82,-5.7,-18.1,72.8,-0.7933,-0.1574,0.0526,0.5856,-0.69,0.51,-0.72,43.242992,-0.040594,0.88,1,427.39
52563,1.84,-5.7,-18.1,72.8,-0.7933,-0.1574,0.0526,0.5856,-0.69,0.51,-0.72,43.242992,-0.040594,0.88,1,427.39
52563,1.83,-5.7,-18.1,72.8,-0.7933,-0.1574,0.0526,0.5856,-0.69,0.51,-0.72,43.242992,-0.040594,0.88,1,427.39
52563,1.84,-5.7,-18.1,72.8,-0.7933,-0.1574,0.0526,0.5856,-0.69,0.51,-0.72,43.242992,-0.040594,0.88,1,427.39
52576,1.84,-6.3,-18.4,73.0,-0.7918,-0.1616,0.0501,0.5867,-0.47,0.75,-0.52,43.242992,-0.040594,0.88,1,427.39
52576,1.83,-6.3,-18.4,73.0,-0.7918,-0.1616,0.0501,0.5867,-0.47,0.75,-0.52,43.242992,-0.040594,0.88,1,427.39
52576,1.83,-6.3,-18.4,73.0,-0.7918,-0.1616,0.0501,0.5867,-0.47,0.75,-0.52,43.242992,-0.040594,0.88,1,427.39
52576,1.82,-6.3,-18.4,73.0,-0.7918,-0.1616,0.0501,0.5867,-0.47,0.75,-0.52,43.242992,-0.040594,0.88,1,427.39
52576,1.82,-6.3,-18.4,73.0,-0.7918,-0.1616,0.0501,0.5867,-0.47,0.75,-0.52,43.242992,-0.040594,0.88,1,427.39
52589,1.83,-7.1,-18.6,73.2,-0.7902,-0.1668,0.0456,0.5878,-0.91,0.69,0.20,43.242992,-0.040594,0.88,1,427.39
52589,1.83,-7.1,-18.6,73.2,-0.7902,-0.1668,0.0456,0.5878,-0.91,0.69,0.20,43.242992,-0.040594,0.88,1,427.39
52589,1.83,-7.1,-18.6,73.2,-0.7902,-0.1668,0.0456,0.5878,-0.91,0.69,0.20,43.242992,-0.040594,0.88,1,427.39
52589,1.83,-7.1,-18.6,73.2,-0.7902,-0.1668,0.0456,0.5878,-0.91,0.69,0.20,43.242992,-0.040594,0.88,1,427.39
52589,1.82,-7.1,-18.6,73.2,-0.7902,-0.1668,0.0456,0.5878,-0.91,0.69,0.20,43.242992,-0.040594,0.88,1,427.39
52601,1.83,-7.3,-18.5,73.2,-0.7902,-0.1676,0.0440,0.5878,-0.95,0.46,0.10,43.242992,-0.040594,0.88,1,427.39
52601,1.83,-7.3,-18.5,73.2,-0.7902,-0.1676,0.0440,0.5878,-0.95,0.46,0.10,43.242992,-0.040594,0.88,1,427.39
52601,1.84,-7.3,-18.5,73.2,-0.7902,-0.1676,0.0440,0.5878,-0.95,0.46,0.10,43.242992,-0.040594,0.88,1,427.39
52601,1.83,-7.3,-18.5,73.2,-0.7902,-0.1676,0.0440,0.5878,-0.95,0.46,0.10,43.242992,-0.040594,0.88,1,427.39
52601,1.83,-7.3,-18.5,73.2,-0.7902,-0.1676,0.0440,0.5878,-0.95,0.46,0.10,43.242992,-0.040594,0.88,1,427.39
52614,1.84,-7.3,-18.4,73.2,-0.7904,-0.1671,0.0428,0.5877,-0.95,0.46,0.10,43.242992,-0.040594,0.91,1,427.39
52614,1.84,-7.3,-18.4,73.2,-0.7904,-0.1671,0.0428,0.5877,-0.95,0.46,0.10,43.242992,-0.040594,0.91,1,427.39
52614,1.84,-7.3,-18.4,73.2,-0.7904,-0.1671,0.0428,0.5877,-0.95,0.46,0.10,43.242992,-0.040594,0.91,1,427.39
52614,1.83,-7.3,-18.4,73.2,-0.7904,-0.1671,0.0428,0.5877,-0.95,0.46,0.10,43.242992,-0.040594,0.91,1,427.39
52614,1.83,-7.3,-18.4,73.2,-0.7904,-0.1671,0.0428,0.5877,-0.95,0.46,0.10,43.242992,-0.040594,0.91,1,427.39
52627,1.83,-7.3,-18.2,73.2,-0.7905,-0.1656,0.0421,0.5880,-0.67,0.18,-0.43,43.242992,-0.040594,0.91,1,427.50
52627,1.84,-7.3,-18.2,73.2,-0.7905,-0.1656,0.0421,0.5880,-0.67,0.18,-0.43,43.242992,-0.040594,0.91,1,427.50
52627,1.84,-7.3,-18.2,73.2,-0.7905,-0.1656,0.0421,0.5880,-0.67,0.18,-0.43,43.242992,-0.040594,0.91,1,427.50
52627,1.83,-7.3,-18.2,73.2,-0.7905,-0.1656,0.0421,0.5880,-0.67,0.18,-0.43,43.242992,-0.040594,0.91,1,427.50
52627,1.84,-7.3,-18.2,73.2,-0.7905,-0.1656,0.0421,0.5880,-0.67,0.18,-0.43,43.242992,-0.040594,0.91,1,427.50
52640,1.84,-7.0,-17.7,73.3,-0.7911,-0.1570,0.0408,0.5897,-0.07,0.40,-0.70,43.242992,-0.040594,0.91,1,427.50
52640,1.85,-7.0,-17.7,73.3,-0.7911,-0.1570,0.0408,0.5897,-0.07,0.40,-0.70,43.242992,-0.040594,0.91,1,427.50
52640,1.80,-7.0,-17.7,73.3,-0.7911,-0.1570,0.0408,0.5897,-0.07,0.40,-0.70,43.242992,-0.040594,0.91,1,427.50
52640,1.71,-7.0,-17.7,73.3,-0.7911,-0.1570,0.0408,0.5897,-0.07,0.40,-0.70,43.242992,-0.040594,0.91,1,427.50
52640,1.60,-7.0,-17.7,73.3,-0.7911,-0.1570,0.0408,0.5897,-0.07,0.40,-0.70,43.242992,-0.040594,0.91,1,427.50
52652,1.57,-6.8,-17.3,73.3,-0.7914,-0.1533,0.0399,0.5903,0.00,0.13,-0.36,43.242992,-0.040594,0.91,1,427.50
52652,1.58,-6.8,-17.3,73.3,-0.7914,-0.1533,0.0399,0.5903,0.00,0.13,-0.36,43.242992,-0.040594,0.91,1,427.50
52652,1.59,-6.8,-17.3,73.3,-0.7914,-0.1533,0.0399,0.5903,0.00,0.13,-0.36,43.242992,-0.040594,0.91,1,427.50
52652,1.60,-6.8,-17.3,73.3,-0.7914,-0.1533,0.0399,0.5903,0.00,0.13,-0.36,43.242992,-0.040594,0.91,1,427.50
52652,1.60,-6.8,-17.3,73.3,-0.7914,-0.1533,0.0399,0.5903,0.00,0.13,-0.36,43.242992,-0.040594,0.91,1,427.50
52665,1.60,-6.7,-16.9,73.3,-0.7914,-0.1533,0.0399,0.5903,0.00,0.13,-0.36,43.242992,-0.040594,0.93,1,427.50
52665,1.61,-6.7,-16.9,73.3,-0.7914,-0.1533,0.0399,0.5903,0.00,0.13,-0.36,43.242992,-0.040594,0.93,1,427.50
52665,1.61,-6.7,-16.9,73.3,-0.7914,-0.1533,0.0399,0.5903,0.00,0.13,-0.36,43.242992,-0.040594,0.93,1,427.50
52665,1.61,-6.7,-16.9,73.3,-0.7914,-0.1533,0.0399,0.5903,0.00,0.13,-0.36,43.242992,-0.040594,0.93,1,427.50
52665,1.61,-6.7,-16.9,73.3,-0.7914,-0.1533,0.0399,0.5903,0.00,0.13,-0.36,43.242992,-0.040594,0.93,1,427.50
52678,1.61,-6.3,-15.8,73.3,-0.7927,-0.1441,0.0367,0.5910,0.07,0.28,-0.68,43.242992,-0.040594,0.93,1,427.50
52678,1.61,-6.3,-15.8,73.3,-0.7927,-0.1441,0.0367,0.5910,0.07,0.28,-0.68,43.242992,-0.040594,0.93,1,427.50
52678,1.61,-6.3,-15.8,73.3,-0.7927,-0.1441,0.0367,0.5910,0.07,0.28,-0.68,43.242992,-0.040594,0.93,1,427.50
52678,1.61,-6.3,-15.8,73.3,-0.7927,-0.1441,0.0367,0.5910,0.07,0.28,-0.68,43.242992,-0.040594,0.93,1,427.50
52678,1.61,-6.3,-15.8,73.3,-0.7927,-0.1441,0.0367,0.5910,0.07,0.28,-0.68,43.242992,-0.040594,0.93,1,427.50
52691,1.61,-6.3,-15.5,73.3,-0.7935,-0.1411,0.0355,0.5908,0.00,0.20,-0.20,43.242992,-0.040594,0.93,1,427.50
52691,1.61,-6.3,-15.5,73.3,-0.7935,-0.1411,0.0355,0.5908,0.00,0.20,-0.20,43.242992,-0.040594,0.93,1,427.50
52691,1.61,-6.3,-15.5,73.3,-0.7935,-0.1411,0.0355,0.5908,0.00,0.20,-0.20,43.242992,-0.040594,0.93,1,427.50
52691,1.61,-6.3,-15.5,73.3,-0.7935,-0.1411,0.0355,0.5908,0.00,0.20,-0.20,43.242992,-0.040594,0.93,1,427.50
52691,1.63,-6.3,-15.5,73.3,-0.7935,-0.1411,0.0355,0.5908,0.00,0.20,-0.20,43.242992,-0.040594,0.93,1,427.50
52703,1.63,-6.1,-15.1,73.1,-0.7944,-0.1381,0.0343,0.5903,0.01,0.20,-0.13,43.242992,-0.040594,0.93,1,427.50
52703,1.63,-6.1,-15.1,73.1,-0.7944,-0.1381,0.0343,0.5903,0.01,0.20,-0.13,43.242992,-0.040594,0.93,1,427.50
52703,1.63,-6.1,-15.1,73.1,-0.7944,-0.1381,0.0343,0.5903,0.01,0.20,-0.13,43.242992,-0.040594,0.93,1,427.50
52703,1.63,-6.1,-15.1,73.1,-0.7944,-0.1381,0.0343,0.5903,0.01,0.20,-0.13,43.242992,-0.040594,0.93,1,427.50
52703,1.63,-6.1,-15.1,73.1,-0.7944,-0.1381,0.0343,0.5903,0.01,0.20,-0.13,43.242992,-0.040594,0.93,1,427.50
52716,1.63,-6.1,-15.1,73.1,-0.7944,-0.1381,0.0343,0.5903,0.01,0.20,-0.13,43.242992,-0.040594,0.94,1,427.50
52716,1.63,-6.1,-15.1,73.1,-0.7944,-0.1381,0.0343,0.5903,0.01,0.20,-0.13,43.242992,-0.040594,0.94,1,427.50
52716,1.65,-6.1,-15.1,73.1,-0.7944,-0.1381,0.0343,0.5903,0.01,0.20,-0.13,43.242992,-0.040594,0.94,1,427.50
52716,1.65,-6.1,-15.1,73.1,-0.7944,-0.1381,0.0343,0.5903,0.01,0.20,-0.13,43.242992,-0.040594,0.94,1,427.50
52716,1.65,-6.1,-15.1,73.1,-0.7944,-0.1381,0.0343,0.5903,0.01,0.20,-0.13,43.242992,-0.040594,0.94,1,427.50
52729,1.65,-5.9,-13.8,73.0,-0.7968,-0.1279,0.0296,0.5897,-0.30,0.00,0.00,43.242992,-0.040594,0.94,1,427.50
52729,1.65,-5.9,-13.8,73.0,-0.7968,-0.1279,0.0296,0.5897,-0.30,0.00,0.00,43.242992,-0.040594,0.94,1,427.50
52729,1.65,-5.9,-13.8,73.0,-0.7968,-0.1279,0.0296,0.5897,-0.30,0.00,0.00,43.242992,-0.040594,0.94,1,427.50
52729,1.65,-5.9,-13.8,73.0,-0.7968,-0.1279,0.0296,0.5897,-0.30,0.00,0.00,43.242992,-0.040594,0.94,1,427.50
52729,1.65,-5.9,-13.8,73.0,-0.7968,-0.1279,0.0296,0.5897,-0.30,0.00,0.00,43.242992,-0.040594,0.94,1,427.50
52742,1.65,-5.8,-13.3,73.0,-0.7972,-0.1237,0.0275,0.5902,-0.05,0.03,-0.05,43.242992,-0.040594,0.94,1,427.50
52742,1.65,-5.8,-13.3,73.0,-0.7972,-0.1237,0.0275,0.5902,-0.05,0.03,-0.05,43.242992,-0.040594,0.94,1,427.50
52742,1.65,-5.8,-13.3,73.0,-0.7972,-0.1237,0.0275,0.5902,-0.05,0.03,-0.05,43.242992,-0.040594,0.94,1,427.50
52742,1.66,-5.8,-13.3,73.0,-0.7972,-0.1237,0.0275,0.5902,-0.05,0.03,-0.05,43.242992,-0.040594,0.94,1,427.50
52742,1.66,-5.8,-13.3,73.0,-0.7972,-0.1237,0.0275,0.5902,-0.05,0.03,-0.05,43.242992,-0.040594,0.94,1,427.50
52754,1.66,-5.7,-12.6,73.1,-0.7971,-0.1189,0.0250,0.5914,-0.02,-0.22,0.07,43.242992,-0.040594,0.94,1,427.50
52754,1.66,-5.7,-12.6,73.1,-0.7971,-0.1189,0.0250,0.5914,-0.02,-0.22,0.07,43.242992,-0.040594,0.94,1,427.50
52754,1.67,-5.7,-12.6,73.1,-0.7971,-0.1189,0.0250,0.5914,-0.02,-0.22,0.07,43.242992,-0.040594,0.94,1,427.50
52754,1.70,-5.7,-12.6,73.1,-0.7971,-0.1189,0.0250,0.5914,-0.02,-0.22,0.07,43.242992,-0.040594,0.94,1,427.50
52754,1.70,-5.7,-12.6,73.1,-0.7971,-0.1189,0.0250,0.5914,-0.02,-0.22,0.07,43.242992,-0.040594,0.94,1,427.50
52767,1.70,-5.6,-12.0,73.3,-0.7964,-0.1141,0.0226,0.5934,-0.28,-0.17,-0.37,43.242992,-0.040594,0.94,1,427.50
52767,1.70,-5.6,-12.0,73.3,-0.7964,-0.1141,0.0226,0.5934,-0.28,-0.17,-0.37,43.242992,-0.040594,0.94,1,427.50
52767,1.70,-5.6,-12.0,73.3,-0.7964,-0.1141,0.0226,0.5934,-0.28,-0.17,-0.37,43.242992,-0.040594,0.94,1,427.50
52767,1.70,-5.6,-12.0,73.3,-0.7964,-0.1141,0.0226,0.5934,-0.28,-0.17,-0.37,43.242992,-0.040594,0.94,1,427.50
52767,1.70,-5.6,-12.0,73.3,-0.7964,-0.1141,0.0226,0.5934,-0.28,-0.17,-0.37,43.242992,-0.040594,0.94,1,427.50
52780,1.71,-5.5,-10.8,74.0,-0.7935,-0.1047,0.0181,0.5990,0.40,0.37,-0.51,43.242992,-0.040594,0.94,1,427.50
52780,1.71,-5.5,-10.8,74.0,-0.7935,-0.1047,0.0181,0.5990,0.40,0.37,-0.51,43.242992,-0.040594,0.94,1,427.50
52780,1.72,-5.5,-10.8,74.0,-0.7935,-0.1047,0.0181,0.5990,0.40,0.37,-0.51,43.242992,-0.040594,0.94,1,427.50
52780,1.72,-5.5,-10.8,74.0,-0.7935,-0.1047,0.0181,0.5990,0.40,0.37,-0.51,43.242992,-0.040594,0.94,1,427.50
52780,1.73,-5.5,-10.8,74.0,-0.7935,-0.1047,0.0181,0.5990,0.40,0.37,-0.51,43.242992,-0.040594,0.94,1,427.50
52793,1.73,-5.5,-10.2,74.4,-0.7921,-0.1002,0.0155,0.6018,0.41,0.07,-0.55,43.242992,-0.040594,0.94,1,427.50
52793,1.73,-5.5,-10.2,74.4,-0.7921,-0.1002,0.0155,0.6018,0.41,0.07,-0.55,43.242992,-0.040594,0.94,1,427.50
52793,1.74,-5.5,-10.2,74.4,-0.7921,-0.1002,0.0155,0.6018,0.41,0.07,-0.55,43.242992,-0.040594,0.94,1,427.50
52793,1.74,-5.5,-10.2,74.4,-0.7921,-0.1002,0.0155,0.6018,0.41,0.07,-0.55,43.242992,-0.040594,0.94,1,427.50
52793,1.74,-5.5,-10.2,74.4,-0.7921,-0.1002,0.0155,0.6018,0.41,0.07,-0.55,43.242992,-0.040594,0.94,1,427.50
52805,1.74,-5.5,-9.6,74.6,-0.7911,-0.0965,0.0130,0.6037,0.11,0.19,-0.30,43.242992,-0.040594,0.94,1,427.39
52805,1.75,-5.5,-9.6,74.6,-0.7911,-0.0965,0.0130,0.6037,0.11,0.19,-0.30,43.242992,-0.040594,0.94,1,427.39
52805,1.75,-5.5,-9.6,74.6,-0.7911,-0.0965,0.0130,0.6037,0.11,0.19,-0.30,43.242992,-0.040594,0.94,1,427.39
52805,1.75,-5.5,-9.6,74.6,-0.7911,-0.0965,0.0130,0.6037,0.11,0.19,-0.30,43.242992,-0.040594,0.94,1,427.39
52805,1.75,-5.5,-9.6,74.6,-0.7911,-0.0965,0.0130,0.6037,0.11,0.19,-0.30,43.242992,-0.040594,0.94,1,427.39
52818,1.75,-5.5,-9.2,74.7,-0.7908,-0.0935,0.0108,0.6047,0.11,0.40,-0.02,43.242992,-0.040594,0.94,1,427.39
52818,1.75,-5.5,-9.2,74.7,-0.7908,-0.0935,0.0108,0.6047,0.11,0.40,-0.02,43.242992,-0.040594,0.94,1,427.39
52818,1.75,-5.5,-9.2,74.7,-0.7908,-0.0935,0.0108,0.6047,0.11,0.40,-0.02,43.242992,-0.040594,0.94,1,427.39
52818,1.75,-5.5,-9.2,74.7,-0.7908,-0.0935,0.0108,0.6047,0.11,0.40,-0.02,43.242992,-0.040594,0.94,1,427.39
52818,1.75,-5.5,-9.2,74.7,-0.7908,-0.0935,0.0108,0.6047,0.11,0.40,-0.02,43.242992,-0.040594,0.94,1,427.39
52831,1.75,-5.5,-8.5,74.7,-0.7915,-0.0885,0.0059,0.6046,-0.01,0.10,0.37,43.242992,-0.040594,0.94,1,427.39
52831,1.75,-5.5,-8.5,74.7,-0.7915,-0.0885,0.0059,0.6046,-0.01,0.10,0.37,43.242992,-0.040594,0.94,1,427.39
52831,1.76,-5.5,-8.5,74.7,-0.7915,-0.0885,0.0059,0.6046,-0.01,0.10,0.37,43.242992,-0.040594,0.94,1,427.39
52831,1.76,-5.5,-8.5,74.7,-0.7915,-0.0885,0.0059,0.6046,-0.01,0.10,0.37,43.242992,-0.040594,0.94,1,427.39
52831,1.76,-5.5,-8.5,74.7,-0.7915,-0.0885,0.0059,0.6046,-0.01,0.10,0.37,43.242992,-0.040594,0.94,1,427.39
52844,1.76,-5.6,-8.1,74.6,-0.7921,-0.0864,0.0034,0.6041,-0.07,-0.07,0.56,43.242992,-0.040594,0.94,1,427.39
52844,1.76,-5.6,-8.1,74.6,-0.7921,-0.0864,0.0034,0.6041,-0.07,-0.07,0.56,43.242992,-0.040594,0.94,1,427.39
52844,1.75,-5.6,-8.1,74.6,-0.7921,-0.0864,0.0034,0.6041,-0.07,-0.07,0.56,43.242992,-0.040594,0.94,1,427.39
52844,1.75,-5.6,-8.1,74.6,-0.7921,-0.0864,0.0034,0.6041,-0.07,-0.07,0.56,43.242992,-0.040594,0.94,1,427.39
52844,1.75,-5.6,-8.1,74.6,-0.7921,-0.0864,0.0034,0.6041,-0.07,-0.07,0.56,43.242992,-0.040594,0.94,1,427.39
52856,1.75,-5.8,-7.8,74.5,-0.7926,-0.0848,0.0006,0.6037,-0.38,0.07,0.70,43.242992,-0.040594,0.94,1,427.39
52856,1.75,-5.8,-7.8,74.5,-0.7926,-0.0848,0.0006,0.6037,-0.38,0.07,0.70,43.242992,-0.040594,0.94,1,427.39
52856,1.75,-5.8,-7.8,74.5,-0.7926,-0.0848,0.0006,0.6037,-0.38,0.07,0.70,43.242992,-0.040594,0.94,1,427.39
52856,1.74,-5.8,-7.8,74.5,-0.7926,-0.0848,0.0006,0.6037,-0.38,0.07,0.70,43.242992,-0.040594,0.94,1,427.39
52856,1.74,-5.8,-7.8,74.5,-0.7926,-0.0848,0.0006,0.6037,-0.38,0.07,0.70,43.242992,-0.040594,0.94,1,427.39
52869,1.73,-5.9,-7.3,74.5,-0.7929,-0.0828,-0.0025,0.6035,-0.75,0.17,0.86,43.242992,-0.040594,0.93,1,427.39
52869,1.73,-5.9,-7.3,74.5,-0.7929,-0.0828,-0.0025,0.6035,-0.75,0.17,0.86,43.242992,-0.040594,0.93,1,427.39
52869,1.72,-5.9,-7.3,74.5,-0.7929,-0.0828,-0.0025,0.6035,-0.75,0.17,0.86,43.242992,-0.040594,0.93,1,427.39
52869,1.72,-5.9,-7.3,74.5,-0.7929,-0.0828,-0.0025,0.6035,-0.75,0.17,0.86,43.242992,-0.040594,0.93,1,427.39
52869,1.72,-5.9,-7.3,74.5,-0.7929,-0.0828,-0.0025,0.6035,-0.75,0.17,0.86,43.242992,-0.040594,0.93,1,427.39
52882,1.71,-6.0,-6.4,74.8,-0.7918,-0.0769,-0.0079,0.6058,-1.14,0.44,0.88,43.242992,-0.040594,0.93,1,427.39
52882,1.71,-6.0,-6.4,74.8,-0.7918,-0.0769,-0.0079,0.6058,-1.14,0.44,0.88,43.242992,-0.040594,0.93,1,427.39
52882,1.70,-6.0,-6.4,74.8,-0.7918,-0.0769,-0.0079,0.6058,-1.14,0.44,0.88,43.242992,-0.040594,0.93,1,427.39
52882,1.70,-6.0,-6.4,74.8,-0.7918,-0.0769,-0.0079,0.6058,-1.14,0.44,0.88,43.242992,-0.040594,0.93,1,427.39
52882,1.69,-6.0,-6.4,74.8,-0.7918,-0.0769,-0.0079,0.6058,-1.14,0.44,0.88,43.242992,-0.040594,0.93,1,427.39
52895,1.69,-5.9,-5.9,75.0,-0.7905,-0.0727,-0.0096,0.6079,-1.16,0.61,0.47,43.242992,-0.040594,0.93,1,427.39
52895,1.67,-5.9,-5.9,75.0,-0.7905,-0.0727,-0.0096,0.6079,-1.16,0.61,0.47,43.242992,-0.040594,0.93,1,427.39
52895,1.67,-5.9,-5.9,75.0,-0.7905,-0.0727,-0.0096,0.6079,-1.16,0.61,0.47,43.242992,-0.040594,0.93,1,427.39
52895,1.67,-5.9,-5.9,75.0,-0.7905,-0.0727,-0.0096,0.6079,-1.16,0.61,0.47,43.242992,-0.040594,0.93,1,427.39
52895,1.66,-5.9,-5.9,75.0,-0.7905,-0.0727,-0.0096,0.6079,-1.16,0.61,0.47,43.242992,-0.040594,0.93,1,427.39
52907,1.66,-5.6,-5.3,75.3,-0.7897,-0.0677,-0.0104,0.6096,-1.11,0.88,-0.02,43.242992,-0.040594,0.93,1,427.39
52907,1.65,-5.6,-5.3,75.3,-0.7897,-0.0677,-0.0104,0.6096,-1.11,0.88,-0.02,43.242992,-0.040594,0.93,1,427.39
52907,1.65,-5.6,-5.3,75.3,-0.7897,-0.0677,-0.0104,0.6096,-1.11,0.88,-0.02,43.242992,-0.040594,0.93,1,427.39
52907,1.65,-5.6,-5.3,75.3,-0.7897,-0.0677,-0.0104,0.6096,-1.11,0.88,-0.02,43.242992,-0.040594,0.93,1,427.39
52907,1.65,-5.6,-5.3,75.3,-0.7897,-0.0677,-0.0104,0.6096,-1.11,0.88,-0.02,43.242992,-0.040594,0.93,1,427.39
52920,1.63,-5.2,-4.8,75.4,-0.7893,-0.0617,-0.0108,0.6107,-0.69,0.09,-0.37,43.242992,-0.040594,0.92,1,427.39
52920,1.63,-5.2,-4.8,75.4,-0.7893,-0.0617,-0.0108,0.6107,-0.69,0.09,-0.37,43.242992,-0.040594,0.92,1,427.39
52920,1.63,-5.2,-4.8,75.4,-0.7893,-0.0617,-0.0108,0.6107,-0.69,0.09,-0.37,43.242992,-0.040594,0.92,1,427.39
52920,1.63,-5.2,-4.8,75.4,-0.7893,-0.0617,-0.0108,0.6107,-0.69,0.09,-0.37,43.242992,-0.040594,0.92,1,427.39
52920,1.63,-5.2,-4.8,75.4,-0.7893,-0.0617,-0.0108,0.6107,-0.69,0.09,-0.37,43.242992,-0.040594,0.92,1,427.39
52933,1.61,-4.3,-3.6,75.4,-0.7899,-0.0488,-0.0098,0.6110,0.02,0.10,-0.05,43.242992,-0.040594,0.92,1,427.39
52933,1.61,-4.3,-3.6,75.4,-0.7899,-0.0488,-0.0098,0.6110,0.02,0.10,-0.05,43.242992,-0.040594,0.92,1,427.39
52933,1.61,-4.3,-3.6,75.4,-0.7899,-0.0488,-0.0098,0.6110,0.02,0.10,-0.05,43.242992,-0.040594,0.92,1,427.39
52933,1.61,-4.3,-3.6,75.4,-0.7899,-0.0488,-0.0098,0.6110,0.02,0.10,-0.05,43.242992,-0.040594,0.92,1,427.39
52933,1.61,-4.3,-3.6,75.4,-0.7899,-0.0488,-0.0098,0.6110,0.02,0.10,-0.05,43.242992,-0.040594,0.92,1,427.39
52946,1.61,-3.7,-3.3,75.2,-0.7910,-0.0431,-0.0087,0.6101,0.18,0.11,-0.03,43.242992,-0.040594,0.92,1,427.39
52946,1.61,-3.7,-3.3,75.2,-0.7910,-0.0431,-0.0087,0.6101,0.18,0.11,-0.03,43.242992,-0.040594,0.92,1,427.39
52946,1.61,-3.7,-3.3,75.2,-0.7910,-0.0431,-0.0087,0.6101,0.18,0.11,-0.03,43.242992,-0.040594,0.92,1,427.39
52946,1.60,-3.7,-3.3,75.2,-0.7910,-0.0431,-0.0087,0.6101,0.18,0.11,-0.03,43.242992,-0.040594,0.92,1,427.39
52946,1.60,-3.7,-3.3,75.2,-0.7910,-0.0431,-0.0087,0.6101,0.18,0.11,-0.03,43.242992,-0.040594,0.92,1,427.39
52958,1.60,-3.3,-2.8,75.0,-0.7925,-0.0380,-0.0076,0.6085,0.70,-0.50,-0.28,43.242992,-0.040594,0.92,1,427.39
52958,1.60,-3.3,-2.8,75.0,-0.7925,-0.0380,-0.0076,0.6085,0.70,-0.50,-0.28,43.242992,-0.040594,0.92,1,427.39
52958,1.60,-3.3,-2.8,75.0,-0.7925,-0.0380,-0.0076,0.6085,0.70,-0.50,-0.28,43.242992,-0.040594,0.92,1,427.39
52958,1.60,-3.3,-2.8,75.0,-0.7925,-0.0380,-0.0076,0.6085,0.70,-0.50,-0.28,43.242992,-0.040594,0.92,1,427.39
52958,1.59,-3.3,-2.8,75.0,-0.7925,-0.0380,-0.0076,0.6085,0.70,-0.50,-0.28,43.242992,-0.040594,0.92,1,427.39
52971,1.59,-3.0,-2.5,74.7,-0.7941,-0.0338,-0.0071,0.6067,1.11,-0.76,-0.34,43.242992,-0.040594,0.91,1,427.39
52971,1.59,-3.0,-2.5,74.7,-0.7941,-0.0338,-0.0071,0.6067,1.11,-0.76,-0.34,43.242992,-0.040594,0.91,1,427.39
52971,1.59,-3.0,-2.5,74.7,-0.7941,-0.0338,-0.0071,0.6067,1.11,-0.76,-0.34,43.242992,-0.040594,0.91,1,427.39
52971,1.59,-3.0,-2.5,74.7,-0.7941,-0.0338,-0.0071,0.6067,1.11,-0.76,-0.34,43.242992,-0.040594,0.91,1,427.39
52971,1.59,-3.0,-2.5,74.7,-0.7941,-0.0338,-0.0071,0.6067,1.11,-0.76,-0.34,43.242992,-0.040594,0.91,1,427.39
52984,1.59,-2.8,-2.2,74.4,-0.7956,-0.0310,-0.0075,0.6048,1.37,-1.00,-0.37,43.242992,-0.040594,0.91,1,427.39
52984,1.59,-2.8,-2.2,74.4,-0.7956,-0.0310,-0.0075,0.6048,1.37,-1.00,-0.37,43.242992,-0.040594,0.91,1,427.39
52984,1.59,-2.8,-2.2,74.4,-0.7956,-0.0310,-0.0075,0.6048,1.37,-1.00,-0.37,43.242992,-0.040594,0.91,1,427.39
52984,1.59,-2.8,-2.2,74.4,-0.7956,-0.0310,-0.0075,0.6048,1.37,-1.00,-0.37,43.242992,-0.040594,0.91,1,427.39
52984,1.59,-2.8,-2.2,74.4,-0.7956,-0.0310,-0.0075,0.6048,1.37,-1.00,-0.37,43.242992,-0.040594,0.91,1,427.39
52997,1.59,-3.1,-1.9,74.0,-0.7982,-0.0305,-0.0116,0.6015,0.17,-0.46,-0.75,43.242992,-0.040594,0.91,1,427.39
52997,1.58,-3.1,-1.9,74.0,-0.7982,-0.0305,-0.0116,0.6015,0.17,-0.46,-0.75,43.242992,-0.040594,0.91,1,427.39
52997,1.58,-3.1,-1.9,74.0,-0.7982,-0.0305,-0.0116,0.6015,0.17,-0.46,-0.75,43.242992,-0.040594,0.91,1,427.39
52997,1.58,-3.1,-1.9,74.0,-0.7982,-0.0305,-0.0116,0.6015,0.17,-0.46,-0.75,43.242992,-0.040594,0.91,1,427.39
52997,1.58,-3.1,-1.9,74.0,-0.7982,-0.0305,-0.0116,0.6015,0.17,-0.46,-0.75,43.242992,-0.040594,0.91,1,427.39
53009,1.58,-3.5,-1.8,73.8,-0.7986,-0.0315,-0.0146,0.6008,-0.07,-0.22,-0.55,43.242992,-0.040594,0.91,1,427.39
53009,1.58,-3.5,-1.8,73.8,-0.7986,-0.0315,-0.0146,0.6008,-0.07,-0.22,-0.55,43.242992,-0.040594,0.91,1,427.39
53009,1.58,-3.5,-1.8,73.8,-0.7986,-0.0315,-0.0146,0.6008,-0.07,-0.22,-0.55,43.242992,-0.040594,0.91,1,427.39
53009,1.58,-3.5,-1.8,73.8,-0.7986,-0.0315,-0.0146,0.6008,-0.07,-0.22,-0.55,43.242992,-0.040594,0.91,1,427.39
53009,1.57,-3.5,-1.8,73.8,-0.7986,-0.0315,-0.0146,0.6008,-0.07,-0.22,-0.55,43.242992,-0.040594,0.91,1,427.39
53022,1.57,-3.8,-1.7,73.9,-0.7983,-0.0323,-0.0175,0.6010,-0.30,-0.15,-0.45,43.242992,-0.040594,0.90,1,427.39
53022,1.57,-3.8,-1.7,73.9,-0.7983,-0.0323,-0.0175,0.6010,-0.30,-0.15,-0.45,43.242992,-0.040594,0.90,1,427.39
53022,1.57,-3.8,-1.7,73.9,-0.7983,-0.0323,-0.0175,0.6010,-0.30,-0.15,-0.45,43.242992,-0.040594,0.90,1,427.39
53022,1.57,-3.8,-1.7,73.9,-0.7983,-0.0323,-0.0175,0.6010,-0.30,-0.15,-0.45,43.242992,-0.040594,0.90,1,427.39
53022,1.57,-3.8,-1.7,73.9,-0.7983,-0.0323,-0.0175,0.6010,-0.30,-0.15,-0.45,43.242992,-0.040594,0.90,1,427.39
53035,1.57,-4.0,-1.5,74.1,-0.7973,-0.0326,-0.0201,0.6022,-0.30,-0.00,-0.57,43.242992,-0.040594,0.90,1,427.39
53035,1.57,-4.0,-1.5,74.1,-0.7973,-0.0326,-0.0201,0.6022,-0.30,-0.00,-0.57,43.242992,-0.040594,0.90,1,427.39
53035,1.57,-4.0,-1.5,74.1,-0.7973,-0.0326,-0.0201,0.6022,-0.30,-0.00,-0.57,43.242992,-0.040594,0.90,1,427.39
53035,1.57,-4.0,-1.5,74.1,-0.7973,-0.0326,-0.0201,0.6022,-0.30,-0.00,-0.57,43.242992,-0.040594,0.90,1,427.39
53035,1.57,-4.0,-1.5,74.1,-0.7973,-0.0326,-0.0201,0.6022,-0.30,-0.00,-0.57,43.242992,-0.040594,0.90,1,427.39
53048,1.55,-4.2,-1.3,74.3,-0.7960,-0.0322,-0.0222,0.6040,-0.34,-0.23,-0.83,43.242992,-0.040594,0.90,1,427.39
53048,1.57,-4.2,-1.3,74.3,-0.7960,-0.0322,-0.0222,0.6040,-0.34,-0.23,-0.83,43.242992,-0.040594,0.90,1,427.39
53048,1.57,-4.2,-1.3,74.3,-0.7960,-0.0322,-0.0222,0.6040,-0.34,-0.23,-0.83,43.242992,-0.040594,0.90,1,427.39
53048,1.57,-4.2,-1.3,74.3,-0.7960,-0.0322,-0.0222,0.6040,-0.34,-0.23,-0.83,43.242992,-0.040594,0.90,1,427.39
53048,1.55,-4.2,-1.3,74.3,-0.7960,-0.0322,-0.0222,0.6040,-0.34,-0.23,-0.83,43.242992,-0.040594,0.90,1,427.39
53060,1.57,-4.3,-1.0,74.8,-0.7933,-0.0311,-0.0246,0.6073,0.02,-0.02,-0.47,43.242992,-0.040594,0.90,1,427.39
53060,1.57,-4.3,-1.0,74.8,-0.7933,-0.0311,-0.0246,0.6073,0.02,-0.02,-0.47,43.242992,-0.040594,0.90,1,427.39
53060,1.57,-4.3,-1.0,74.8,-0.7933,-0.0311,-0.0246,0.6073,0.02,-0.02,-0.47,43.242992,-0.040594,0.90,1,427.39
53060,1.55,-4.3,-1.0,74.8,-0.7933,-0.0311,-0.0246,0.6073,0.02,-0.02,-0.47,43.242992,-0.040594,0.90,1,427.39
53060,1.55,-4.3,-1.0,74.8,-0.7933,-0.0311,-0.0246,0.6073,0.02,-0.02,-0.47,43.242992,-0.040594,0.90,1,427.39
53073,1.55,-4.4,-1.0,75.0,-0.7926,-0.0310,-0.0252,0.6084,-0.17,-0.10,-0.52,43.242992,-0.040594,0.87,1,427.39
53073,1.55,-4.4,-1.0,75.0,-0.7926,-0.0310,-0.0252,0.6084,-0.17,-0.10,-0.52,43.242992,-0.040594,0.87,1,427.39
53073,1.55,-4.4,-1.0,75.0,-0.7926,-0.0310,-0.0252,0.6084,-0.17,-0.10,-0.52,43.242992,-0.040594,0.87,1,427.39
53073,1.55,-4.4,-1.0,75.0,-0.7926,-0.0310,-0.0252,0.6084,-0.17,-0.10,-0.52,43.242992,-0.040594,0.87,1,427.39
53073,1.55,-4.4,-1.0,75.0,-0.7926,-0.0310,-0.0252,0.6084,-0.17,-0.10,-0.52,43.242992,-0.040594,0.87,1,427.39
53086,1.57,-4.5,-1.0,75.0,-0.7921,-0.0312,-0.0256,0.6090,0.17,-0.27,-0.43,43.242992,-0.040594,0.87,1,427.39
53086,1.57,-4.5,-1.0,75.0,-0.7921,-0.0312,-0.0256,0.6090,0.17,-0.27,-0.43,43.242992,-0.040594,0.87,1,427.39
53086,1.57,-4.5,-1.0,75.0,-0.7921,-0.0312,-0.0256,0.6090,0.17,-0.27,-0.43,43.242992,-0.040594,0.87,1,427.39
53086,1.57,-4.5,-1.0,75.0,-0.7921,-0.0312,-0.0256,0.6090,0.17,-0.27,-0.43,43.242992,-0.040594,0.87,1,427.39
53086,1.55,-4.5,-1.0,75.0,-0.7921,-0.0312,-0.0256,0.6090,0.17,-0.27,-0.43,43.242992,-0.040594,0.87,1,427.39
53099,1.55,-4.6,-1.0,75.0,-0.7920,-0.0319,-0.0264,0.6090,0.18,-0.28,-0.57,43.242992,-0.040594,0.87,1,427.39
53099,1.57,-4.6,-1.0,75.0,-0.7920,-0.0319,-0.0264,0.6090,0.18,-0.28,-0.57,43.242992,-0.040594,0.87,1,427.39
53099,1.57,-4.6,-1.0,75.0,-0.7920,-0.0319,-0.0264,0.6090,0.18,-0.28,-0.57,43.242992,-0.040594,0.87,1,427.39
53099,1.55,-4.6,-1.0,75.0,-0.7920,-0.0319,-0.0264,0.6090,0.18,-0.28,-0.57,43.242992,-0.040594,0.87,1,427.39
53099,1.57,-4.6,-1.0,75.0,-0.7920,-0.0319,-0.0264,0.6090,0.18,-0.28,-0.57,43.242992,-0.040594,0.87,1,427.39
53111,1.57,-5.0,-1.0,75.1,-0.7914,-0.0345,-0.0296,0.6095,-0.05,-0.50,-0.27,43.242992,-0.040594,0.87,1,427.39
53111,1.57,-5.0,-1.0,75.1,-0.7914,-0.0345,-0.0296,0.6095,-0.05,-0.50,-0.27,43.242992,-0.040594,0.87,1,427.39
53111,1.57,-5.0,-1.0,75.1,-0.7914,-0.0345,-0.0296,0.6095,-0.05,-0.50,-0.27,43.242992,-0.040594,0.87,1,427.39
53111,1.57,-5.0,-1.0,75.1,-0.7914,-0.0345,-0.0296,0.6095,-0.05,-0.50,-0.27,43.242992,-0.040594,0.87,1,427.39
53111,1.57,-5.0,-1.0,75.1,-0.7914,-0.0345,-0.0296,0.6095,-0.05,-0.50,-0.27,43.242992,-0.040594,0.87,1,427.39
53124,1.55,-5.4,-1.0,75.3,-0.7904,-0.0365,-0.0317,0.6105,-0.40,-0.02,-0.11,43.242992,-0.040594,0.85,1,427.39
53124,1.55,-5.4,-1.0,75.3,-0.7904,-0.0365,-0.0317,0.6105,-0.40,-0.02,-0.11,43.242992,-0.040594,0.85,1,427.39
53124,1.55,-5.4,-1.0,75.3,-0.7904,-0.0365,-0.0317,0.6105,-0.40,-0.02,-0.11,43.242992,-0.040594,0.85,1,427.39
53124,1.55,-5.4,-1.0,75.3,-0.7904,-0.0365,-0.0317,0.6105,-0.40,-0.02,-0.11,43.242992,-0.040594,0.85,1,427.39
53124,1.55,-5.4,-1.0,75.3,-0.7904,-0.0365,-0.0317,0.6105,-0.40,-0.02,-0.11,43.242992,-0.040594,0.85,1,427.39
53137,1.55,-5.6,-1.0,75.5,-0.7892,-0.0383,-0.0337,0.6119,-0.69,0.37,0.07,43.242992,-0.040594,0.85,1,427.39
53137,1.55,-5.6,-1.0,75.5,-0.7892,-0.0383,-0.0337,0.6119,-0.69,0.37,0.07,43.242992,-0.040594,0.85,1,427.39
53137,1.54,-5.6,-1.0,75.5,-0.7892,-0.0383,-0.0337,0.6119,-0.69,0.37,0.07,43.242992,-0.040594,0.85,1,427.39
53137,1.55,-5.6,-1.0,75.5,-0.7892,-0.0383,-0.0337,0.6119,-0.69,0.37,0.07,43.242992,-0.040594,0.85,1,427.39
53137,1.54,-5.6,-1.0,75.5,-0.7892,-0.0383,-0.0337,0.6119,-0.69,0.37,0.07,43.242992,-0.040594,0.85,1,427.39
53150,1.54,-6.0,-0.8,75.9,-0.7871,-0.0385,-0.0368,0.6144,-0.22,-0.05,0.37,43.242992,-0.040594,0.85,1,427.39
53150,1.54,-6.0,-0.8,75.9,-0.7871,-0.0385,-0.0368,0.6144,-0.22,-0.05,0.37,43.242992,-0.040594,0.85,1,427.39
53150,1.54,-6.0,-0.8,75.9,-0.7871,-0.0385,-0.0368,0.6144,-0.22,-0.05,0.37,43.242992,-0.040594,0.85,1,427.39
53150,1.54,-6.0,-0.8,75.9,-0.7871,-0.0385,-0.0368,0.6144,-0.22,-0.05,0.37,43.242992,-0.040594,0.85,1,427.39
53150,1.53,-6.0,-0.8,75.9,-0.7871,-0.0385,-0.0368,0.6144,-0.22,-0.05,0.37,43.242992,-0.040594,0.85,1,427.39
53162,1.53,-6.0,-0.6,76.0,-0.7864,-0.0372,-0.0378,0.6152,-0.11,-0.11,0.22,43.242992,-0.040594,0.85,1,427.39
53162,1.53,-6.0,-0.6,76.0,-0.7864,-0.0372,-0.0378,0.6152,-0.11,-0.11,0.22,43.242992,-0.040594,0.85,1,427.39
53162,1.53,-6.0,-0.6,76.0,-0.7864,-0.0372,-0.0378,0.6152,-0.11,-0.11,0.22,43.242992,-0.040594,0.85,1,427.39
53162,1.53,-6.0,-0.6,76.0,-0.7864,-0.0372,-0.0378,0.6152,-0.11,-0.11,0.22,43.242992,-0.040594,0.85,1,427.39
53162,1.53,-6.0,-0.6,76.0,-0.7864,-0.0372,-0.0378,0.6152,-0.11,-0.11,0.22,43.242992,-0.040594,0.85,1,427.39
53175,1.53,-5.9,-0.4,76.1,-0.7860,-0.0355,-0.0384,0.6160,-0.09,-0.05,0.00,43.242992,-0.040594,0.84,1,427.39
53175,1.53,-5.9,-0.4,76.1,-0.7860,-0.0355,-0.0384,0.6160,-0.09,-0.05,0.00,43.242992,-0.040594,0.84,1,427.39
53175,1.52,-5.9,-0.4,76.1,-0.7860,-0.0355,-0.0384,0.6160,-0.09,-0.05,0.00,43.242992,-0.040594,0.84,1,427.39
53175,1.52,-5.9,-0.4,76.1,-0.7860,-0.0355,-0.0384,0.6160,-0.09,-0.05,0.00,43.242992,-0.040594,0.84,1,427.39
53175,1.52,-5.9,-0.4,76.1,-0.7860,-0.0355,-0.0384,0.6160,-0.09,-0.05,0.00,43.242992,-0.040594,0.84,1,427.39
53188,1.52,-5.8,-0.2,76.3,-0.7852,-0.0335,-0.0387,0.6170,-0.15,-0.03,-0.25,43.242992,-0.040594,0.84,1,427.39
53188,1.52,-5.8,-0.2,76.3,-0.7852,-0.0335,-0.0387,0.6170,-0.15,-0.03,-0.25,43.242992,-0.040594,0.84,1,427.39
53188,1.52,-5.8,-0.2,76.3,-0.7852,-0.0335,-0.0387,0.6170,-0.15,-0.03,-0.25,43.242992,-0.040594,0.84,1,427.39
53188,1.52,-5.8,-0.2,76.3,-0.7852,-0.0335,-0.0387,0.6170,-0.15,-0.03,-0.25,43.242992,-0.040594,0.84,1,427.39
53188,1.52,-5.8,-0.2,76.3,-0.7852,-0.0335,-0.0387,0.6170,-0.15,-0.03,-0.25,43.242992,-0.040594,0.84,1,427.39
53201,1.52,-5.6,0.0,76.7,-0.7830,-0.0299,-0.0395,0.6200,0.27,-0.11,-0.25,43.242992,-0.040594,0.84,1,427.39
53201,1.52,-5.6,0.0,76.7,-0.7830,-0.0299,-0.0395,0.6200,0.27,-0.11,-0.25,43.242992,-0.040594,0.84,1,427.39
53201,1.52,-5.6,0.0,76.7,-0.7830,-0.0299,-0.0395,0.6200,0.27,-0.11,-0.25,43.242992,-0.040594,0.84,1,427.39
53201,1.52,-5.6,0.0,76.7,-0.7830,-0.0299,-0.0395,0.6200,0.27,-0.11,-0.25,43.242992,-0.040594,0.84,1,427.39
53201,1.52,-5.6,0.0,76.7,-0.7830,-0.0299,-0.0395,0.6200,0.27,-0.11,-0.25,43.242992,-0.040594,0.84,1,427.39
53213,1.52,-5.6,0.2,76.8,-0.7820,-0.0288,-0.0398,0.6212,0.27,-0.11,-0.25,43.242992,-0.040594,0.84,1,427.39
53213,1.52,-5.6,0.2,76.8,-0.7820,-0.0288,-0.0398,0.6212,0.27,-0.11,-0.25,43.242992,-0.040594,0.84,1,427.39
53213,1.52,-5.6,0.2,76.8,-0.7820,-0.0288,-0.0398,0.6212,0.27,-0.11,-0.25,43.242992,-0.040594,0.84,1,427.39
53213,1.52,-5.6,0.2,76.8,-0.7820,-0.0288,-0.0398,0.6212,0.27,-0.11,-0.25,43.242992,-0.040594,0.84,1,427.39
53213,1.52,-5.6,0.2,76.8,-0.7820,-0.0288,-0.0398,0.6212,0.27,-0.11,-0.25,43.242992,-0.040594,0.84,1,427.39
53226,1.52,-5.6,0.3,77.0,-0.7814,-0.0281,-0.0403,0.6220,0.61,-0.27,-0.22,43.242992,-0.040594,0.84,1,427.39
53226,1.52,-5.6,0.3,77.0,-0.7814,-0.0281,-0.0403,0.6220,0.61,-0.27,-0.22,43.242992,-0.040594,0.84,1,427.39
53226,1.52,-5.6,0.3,77.0,-0.7814,-0.0281,-0.0403,0.6220,0.61,-0.27,-0.22,43.242992,-0.040594,0.84,1,427.39
53226,1.52,-5.6,0.3,77.0,-0.7814,-0.0281,-0.0403,0.6220,0.61,-0.27,-0.22,43.242992,-0.040594,0.84,1,427.39
53226,1.52,-5.6,0.3,77.0,-0.7814,-0.0281,-0.0403,0.6220,0.61,-0.27,-0.22,43.242992,-0.040594,0.84,1,427.39
53239,1.52,-5.6,0.3,77.0,-0.7811,-0.0283,-0.0411,0.6223,0.34,-0.63,-0.55,43.242992,-0.040594,0.84,1,427.39
53239,1.52,-5.6,0.3,77.0,-0.7811,-0.0283,-0.0411,0.6223,0.34,-0.63,-0.55,43.242992,-0.040594,0.84,1,427.39
53239,1.52,-5.6,0.3,77.0,-0.7811,-0.0283,-0.0411,0.6223,0.34,-0.63,-0.55,43.242992,-0.040594,0.84,1,427.39
53239,1.52,-5.6,0.3,77.0,-0.7811,-0.0283,-0.0411,0.6223,0.34,-0.63,-0.55,43.242992,-0.040594,0.84,1,427.39
53239,1.52,-5.6,0.3,77.0,-0.7811,-0.0283,-0.0411,0.6223,0.34,-0.63,-0.55,43.242992,-0.040594,0.84,1,427.39
53252,1.52,-6.0,0.1,77.1,-0.7796,-0.0334,-0.0440,0.6238,0.00,0.44,-1.00,43.242992,-0.040594,0.84,1,427.39
53252,1.52,-6.0,0.1,77.1,-0.7796,-0.0334,-0.0440,0.6238,0.00,0.44,-1.00,43.242992,-0.040594,0.84,1,427.39
53252,1.52,-6.0,0.1,77.1,-0.7796,-0.0334,-0.0440,0.6238,0.00,0.44,-1.00,43.242992,-0.040594,0.84,1,427.39
53252,1.52,-6.0,0.1,77.1,-0.7796,-0.0334,-0.0440,0.6238,0.00,0.44,-1.00,43.242992,-0.040594,0.84,1,427.39
53252,1.52,-6.0,0.1,77.1,-0.7796,-0.0334,-0.0440,0.6238,0.00,0.44,-1.00,43.242992,-0.040594,0.84,1,427.39
53264,1.52,-6.3,0.1,77.3,-0.7796,-0.0334,-0.0440,0.6238,0.00,0.44,-1.00,43.242992,-0.040594,0.84,1,427.39
53264,1.52,-6.3,0.1,77.3,-0.7796,-0.0334,-0.0440,0.6238,0.00,0.44,-1.00,43.242992,-0.040594,0.84,1,427.39
53264,1.52,-6.3,0.1,77.3,-0.7796,-0.0334,-0.0440,0.6238,0.00,0.44,-1.00,43.242992,-0.040594,0.84,1,427.39
53264,1.52,-6.3,0.1,77.3,-0.7796,-0.0334,-0.0440,0.6238,0.00,0.44,-1.00,43.242992,-0.040594,0.84,1,427.39
53264,1.52,-6.3,0.1,77.3,-0.7796,-0.0334,-0.0440,0.6238,0.00,0.44,-1.00,43.242992,-0.040594,0.84,1,427.39
53277,1.52,-6.6,0.1,77.4,-0.7787,-0.0348,-0.0465,0.6246,-1.11,0.93,-1.39,43.242992,-0.040594,0.86,1,427.39
53277,1.52,-6.6,0.1,77.4,-0.7787,-0.0348,-0.0465,0.6246,-1.11,0.93,-1.39,43.242992,-0.040594,0.86,1,427.39
53277,1.51,-6.6,0.1,77.4,-0.7787,-0.0348,-0.0465,0.6246,-1.11,0.93,-1.39,43.242992,-0.040594,0.86,1,427.39
53277,1.52,-6.6,0.1,77.4,-0.7787,-0.0348,-0.0465,0.6246,-1.11,0.93,-1.39,43.242992,-0.040594,0.86,1,427.39
53277,1.52,-6.6,0.1,77.4,-0.7787,-0.0348,-0.0465,0.6246,-1.11,0.93,-1.39,43.242992,-0.040594,0.86,1,427.39
53290,1.51,-7.4,0.3,77.6,-0.7761,-0.0386,-0.0552,0.6268,-1.17,0.70,-0.07,43.242992,-0.040594,0.86,1,427.39
53290,1.51,-7.4,0.3,77.6,-0.7761,-0.0386,-0.0552,0.6268,-1.17,0.70,-0.07,43.242992,-0.040594,0.86,1,427.39
53290,1.51,-7.4,0.3,77.6,-0.7761,-0.0386,-0.0552,0.6268,-1.17,0.70,-0.07,43.242992,-0.040594,0.86,1,427.39
53290,1.51,-7.4,0.3,77.6,-0.7761,-0.0386,-0.0552,0.6268,-1.17,0.70,-0.07,43.242992,-0.040594,0.86,1,427.39
53290,1.51,-7.4,0.3,77.6,-0.7761,-0.0386,-0.0552,0.6268,-1.17,0.70,-0.07,43.242992,-0.040594,0.86,1,427.39
53303,1.50,-7.6,0.5,77.8,-0.7752,-0.0376,-0.0569,0.6279,-0.20,-0.23,0.12,43.242992,-0.040594,0.86,1,427.39
53303,1.50,-7.6,0.5,77.8,-0.7752,-0.0376,-0.0569,0.6279,-0.20,-0.23,0.12,43.242992,-0.040594,0.86,1,427.39
53303,1.50,-7.6,0.5,77.8,-0.7752,-0.0376,-0.0569,0.6279,-0.20,-0.23,0.12,43.242992,-0.040594,0.86,1,427.39
53303,1.50,-7.6,0.5,77.8,-0.7752,-0.0376,-0.0569,0.6279,-0.20,-0.23,0.12,43.242992,-0.040594,0.86,1,427.39
53303,1.50,-7.6,0.5,77.8,-0.7752,-0.0376,-0.0569,0.6279,-0.20,-0.23,0.12,43.242992,-0.040594,0.86,1,427.39
53315,1.50,-7.7,0.7,78.0,-0.7752,-0.0376,-0.0569,0.6279,-0.20,-0.23,0.12,43.242992,-0.040594,0.86,1,427.39
53315,1.50,-7.7,0.7,78.0,-0.7752,-0.0376,-0.0569,0.6279,-0.20,-0.23,0.12,43.242992,-0.040594,0.86,1,427.39
53315,1.50,-7.7,0.7,78.0,-0.7752,-0.0376,-0.0569,0.6279,-0.20,-0.23,0.12,43.242992,-0.040594,0.86,1,427.39
53315,1.50,-7.7,0.7,78.0,-0.7752,-0.0376,-0.0569,0.6279,-0.20,-0.23,0.12,43.242992,-0.040594,0.86,1,427.39
53315,1.50,-7.7,0.7,78.0,-0.7752,-0.0376,-0.0569,0.6279,-0.20,-0.23,0.12,43.242992,-0.040594,0.86,1,427.39
53328,1.50,-7.7,0.9,78.1,-0.7745,-0.0360,-0.0578,0.6288,0.11,-0.45,-0.09,43.242992,-0.040594,0.89,1,427.39
53328,1.50,-7.7,0.9,78.1,-0.7745,-0.0360,-0.0578,0.6288,0.11,-0.45,-0.09,43.242992,-0.040594,0.89,1,427.39
53328,1.50,-7.7,0.9,78.1,-0.7745,-0.0360,-0.0578,0.6288,0.11,-0.45,-0.09,43.242992,-0.040594,0.89,1,427.39
53328,1.50,-7.7,0.9,78.1,-0.7745,-0.0360,-0.0578,0.6288,0.11,-0.45,-0.09,43.242992,-0.040594,0.89,1,427.39
53328,1.50,-7.7,0.9,78.1,-0.7745,-0.0360,-0.0578,0.6288,0.11,-0.45,-0.09,43.242992,-0.040594,0.89,1,427.39
53341,1.50,-7.1,1.4,78.2,-0.7741,-0.0296,-0.0567,0.6297,0.37,-0.07,0.63,43.242992,-0.040594,0.89,1,427.39
53341,1.49,-7.1,1.4,78.2,-0.7741,-0.0296,-0.0567,0.6297,0.37,-0.07,0.63,43.242992,-0.040594,0.89,1,427.39
53341,1.49,-7.1,1.4,78.2,-0.7741,-0.0296,-0.0567,0.6297,0.37,-0.07,0.63,43.242992,-0.040594,0.89,1,427.39
53341,1.49,-7.1,1.4,78.2,-0.7741,-0.0296,-0.0567,0.6297,0.37,-0.07,0.63,43.242992,-0.040594,0.89,1,427.39
53341,1.49,-7.1,1.4,78.2,-0.7741,-0.0296,-0.0567,0.6297,0.37,-0.07,0.63,43.242992,-0.040594,0.89,1,427.39
53354,1.48,-6.9,1.6,78.1,-0.7747,-0.0269,-0.0562,0.6291,0.02,-0.15,0.50,43.242992,-0.040594,0.89,1,427.39
53354,1.48,-6.9,1.6,78.1,-0.7747,-0.0269,-0.0562,0.6291,0.02,-0.15,0.50,43.242992,-0.040594,0.89,1,427.39
53354,1.48,-6.9,1.6,78.1,-0.7747,-0.0269,-0.0562,0.6291,0.02,-0.15,0.50,43.242992,-0.040594,0.89,1,427.39
53354,1.48,-6.9,1.6,78.1,-0.7747,-0.0269,-0.0562,0.6291,0.02,-0.15,0.50,43.242992,-0.040594,0.89,1,427.39
53354,1.48,-6.9,1.6,78.1,-0.7747,-0.0269,-0.0562,0.6291,0.02,-0.15,0.50,43.242992,-0.040594,0.89,1,427.39
53366,1.48,-6.9,1.6,78.1,-0.7747,-0.0269,-0.0562,0.6291,0.95,-1.25,0.01,43.242992,-0.040594,0.89,1,427.39
53366,1.47,-6.9,1.6,78.1,-0.7747,-0.0269,-0.0562,0.6291,0.95,-1.25,0.01,43.242992,-0.040594,0.89,1,427.39
53366,1.47,-6.9,1.6,78.1,-0.7747,-0.0269,-0.0562,0.6291,0.95,-1.25,0.01,43.242992,-0.040594,0.89,1,427.39
53366,1.47,-6.9,1.6,78.1,-0.7747,-0.0269,-0.0562,0.6291,0.95,-1.25,0.01,43.242992,-0.040594,0.89,1,427.39
53366,1.47,-6.9,1.6,78.1,-0.7747,-0.0269,-0.0562,0.6291,0.95,-1.25,0.01,43.242992,-0.040594,0.89,1,427.39
53379,1.46,-6.6,2.0,78.1,-0.7745,-0.0229,-0.0562,0.6295,0.95,-1.25,0.01,43.242992,-0.040594,0.93,1,427.39
53379,1.46,-6.6,2.0,78.1,-0.7745,-0.0229,-0.0562,0.6295,0.95,-1.25,0.01,43.242992,-0.040594,0.93,1,427.39
53379,1.46,-6.6,2.0,78.1,-0.7745,-0.0229,-0.0562,0.6295,0.95,-1.25,0.01,43.242992,-0.040594,0.93,1,427.39
53379,1.46,-6.6,2.0,78.1,-0.7745,-0.0229,-0.0562,0.6295,0.95,-1.25,0.01,43.242992,-0.040594,0.93,1,427.39
53379,1.46,-6.6,2.0,78.1,-0.7745,-0.0229,-0.0562,0.6295,0.95,-1.25,0.01,43.242992,-0.040594,0.93,1,427.39
53392,1.46,-6.3,2.9,79.1,-0.7692,-0.0159,-0.0595,0.6359,1.19,0.98,-1.34,43.242992,-0.040594,0.93,1,427.39
53392,1.46,-6.3,2.9,79.1,-0.7692,-0.0159,-0.0595,0.6359,1.19,0.98,-1.34,43.242992,-0.040594,0.93,1,427.39
53392,1.46,-6.3,2.9,79.1,-0.7692,-0.0159,-0.0595,0.6359,1.19,0.98,-1.34,43.242992,-0.040594,0.93,1,427.39
53392,1.46,-6.3,2.9,79.1,-0.7692,-0.0159,-0.0595,0.6359,1.19,0.98,-1.34,43.242992,-0.040594,0.93,1,427.39
53392,1.46,-6.3,2.9,79.1,-0.7692,-0.0159,-0.0595,0.6359,1.19,0.98,-1.34,43.242992,-0.040594,0.93,1,427.39
53405,1.46,-6.5,3.1,79.3,-0.7683,-0.0158,-0.0617,0.6369,0.43,0.75,-0.50,43.242992,-0.040594,0.93,1,427.39
53405,1.46,-6.5,3.1,79.3,-0.7683,-0.0158,-0.0617,0.6369,0.43,0.75,-0.50,43.242992,-0.040594,0.93,1,427.39
53405,1.46,-6.5,3.1,79.3,-0.7683,-0.0158,-0.0617,0.6369,0.43,0.75,-0.50,43.242992,-0.040594,0.93,1,427.39
53405,1.45,-6.5,3.1,79.3,-0.7683,-0.0158,-0.0617,0.6369,0.43,0.75,-0.50,43.242992,-0.040594,0.93,1,427.39
53405,1.45,-6.5,3.1,79.3,-0.7683,-0.0158,-0.0617,0.6369,0.43,0.75,-0.50,43.242992,-0.040594,0.93,1,427.39
53417,1.45,-6.6,3.1,79.2,-0.7684,-0.0158,-0.0629,0.6365,0.40,0.25,-0.13,43.242992,-0.040594,0.93,1,427.39
53417,1.46,-6.6,3.1,79.2,-0.7684,-0.0158,-0.0629,0.6365,0.40,0.25,-0.13,43.242992,-0.040594,0.93,1,427.39
53417,1.46,-6.6,3.1,79.2,-0.7684,-0.0158,-0.0629,0.6365,0.40,0.25,-0.13,43.242992,-0.040594,0.93,1,427.39
53417,1.45,-6.6,3.1,79.2,-0.7684,-0.0158,-0.0629,0.6365,0.40,0.25,-0.13,43.242992,-0.040594,0.93,1,427.39
53417,1.45,-6.6,3.1,79.2,-0.7684,-0.0158,-0.0629,0.6365,0.40,0.25,-0.13,43.242992,-0.040594,0.93,1,427.39
53430,1.45,-6.6,3.1,79.0,-0.7693,-0.0156,-0.0630,0.6355,0.73,0.01,-0.40,43.242992,-0.040594,1.01,1,427.50
53430,1.45,-6.6,3.1,79.0,-0.7693,-0.0156,-0.0630,0.6355,0.73,0.01,-0.40,43.242992,-0.040594,1.01,1,427.50
53430,1.45,-6.6,3.1,79.0,-0.7693,-0.0156,-0.0630,0.6355,0.73,0.01,-0.40,43.242992,-0.040594,1.01,1,427.50
53430,1.45,-6.6,3.1,79.0,-0.7693,-0.0156,-0.0630,0.6355,0.73,0.01,-0.40,43.242992,-0.040594,1.01,1,427.50
53430,1.45,-6.6,3.1,79.0,-0.7693,-0.0156,-0.0630,0.6355,0.73,0.01,-0.40,43.242992,-0.040594,1.01,1,427.50
53443,1.45,-6.6,3.3,78.8,-0.7705,-0.0140,-0.0634,0.6340,1.28,-0.30,-0.44,43.242992,-0.040594,1.01,1,427.50
53443,1.45,-6.6,3.3,78.8,-0.7705,-0.0140,-0.0634,0.6340,1.28,-0.30,-0.44,43.242992,-0.040594,1.01,1,427.50
53443,1.44,-6.6,3.3,78.8,-0.7705,-0.0140,-0.0634,0.6340,1.28,-0.30,-0.44,43.242992,-0.040594,1.01,1,427.50
53443,1.44,-6.6,3.3,78.8,-0.7705,-0.0140,-0.0634,0.6340,1.28,-0.30,-0.44,43.242992,-0.040594,1.01,1,427.50
53443,1.44,-6.6,3.3,78.8,-0.7705,-0.0140,-0.0634,0.6340,1.28,-0.30,-0.44,43.242992,-0.040594,1.01,1,427.50
53456,1.44,-6.6,3.5,78.8,-0.7705,-0.0130,-0.0645,0.6340,0.36,-0.61,0.02,43.242992,-0.040594,1.01,1,427.50
53456,1.44,-6.6,3.5,78.8,-0.7705,-0.0130,-0.0645,0.6340,0.36,-0.61,0.02,43.242992,-0.040594,1.01,1,427.50
53456,1.44,-6.6,3.5,78.8,-0.7705,-0.0130,-0.0645,0.6340,0.36,-0.61,0.02,43.242992,-0.040594,1.01,1,427.50
53456,1.44,-6.6,3.5,78.8,-0.7705,-0.0130,-0.0645,0.6340,0.36,-0.61,0.02,43.242992,-0.040594,1.01,1,427.50
53456,1.44,-6.6,3.5,78.8,-0.7705,-0.0130,-0.0645,0.6340,0.36,-0.61,0.02,43.242992,-0.040594,1.01,1,427.50
53468,1.44,-6.6,3.7,79.0,-0.7695,-0.0120,-0.0660,0.6350,0.18,-0.38,0.15,43.242992,-0.040594,1.01,1,427.50
53468,1.42,-6.6,3.7,79.0,-0.7695,-0.0120,-0.0660,0.6350,0.18,-0.38,0.15,43.242992,-0.040594,1.01,1,427.50
53468,1.44,-6.6,3.7,79.0,-0.7695,-0.0120,-0.0660,0.6350,0.18,-0.38,0.15,43.242992,-0.040594,1.01,1,427.50
53468,1.42,-6.6,3.7,79.0,-0.7695,-0.0120,-0.0660,0.6350,0.18,-0.38,0.15,43.242992,-0.040594,1.01,1,427.50
53468,1.42,-6.6,3.7,79.0,-0.7695,-0.0120,-0.0660,0.6350,0.18,-0.38,0.15,43.242992,-0.040594,1.01,1,427.50
53481,1.42,-6.7,3.9,79.3,-0.7678,-0.0113,-0.0676,0.6369,0.37,0.15,0.05,43.242992,-0.040594,1.14,1,427.50
53481,1.42,-6.7,3.9,79.3,-0.7678,-0.0113,-0.0676,0.6369,0.37,0.15,0.05,43.242992,-0.040594,1.14,1,427.50
53481,1.42,-6.7,3.9,79.3,-0.7678,-0.0113,-0.0676,0.6369,0.37,0.15,0.05,43.242992,-0.040594,1.14,1,427.50
53481,1.41,-6.7,3.9,79.3,-0.7678,-0.0113,-0.0676,0.6369,0.37,0.15,0.05,43.242992,-0.040594,1.14,1,427.50
53481,1.42,-6.7,3.9,79.3,-0.7678,-0.0113,-0.0676,0.6369,0.37,0.15,0.05,43.242992,-0.040594,1.14,1,427.50
53494,1.42,-7.1,4.3,80.0,-0.7633,-0.0109,-0.0725,0.6418,0.36,1.25,-0.95,43.242992,-0.040594,1.14,1,427.50
53494,1.42,-7.1,4.3,80.0,-0.7633,-0.0109,-0.0725,0.6418,0.36,1.25,-0.95,43.242992,-0.040594,1.14,1,427.50
53494,1.41,-7.1,4.3,80.0,-0.7633,-0.0109,-0.0725,0.6418,0.36,1.25,-0.95,43.242992,-0.040594,1.14,1,427.50
53494,1.42,-7.1,4.3,80.0,-0.7633,-0.0109,-0.0725,0.6418,0.36,1.25,-0.95,43.242992,-0.040594,1.14,1,427.50
53494,1.42,-7.1,4.3,80.0,-0.7633,-0.0109,-0.0725,0.6418,0.36,1.25,-0.95,43.242992,-0.040594,1.14,1,427.50
53507,1.42,-7.3,4.5,80.3,-0.7615,-0.0114,-0.0742,0.6437,0.95,2.26,-0.83,43.242992,-0.040594,1.14,1,427.50
53507,1.42,-7.3,4.5,80.3,-0.7615,-0.0114,-0.0742,0.6437,0.95,2.26,-0.83,43.242992,-0.040594,1.14,1,427.50
53507,1.41,-7.3,4.5,80.3,-0.7615,-0.0114,-0.0742,0.6437,0.95,2.26,-0.83,43.242992,-0.040594,1.14,1,427.50
53507,1.42,-7.3,4.5,80.3,-0.7615,-0.0114,-0.0742,0.6437,0.95,2.26,-0.83,43.242992,-0.040594,1.14,1,427.50
53507,1.41,-7.3,4.5,80.3,-0.7615,-0.0114,-0.0742,0.6437,0.95,2.26,-0.83,43.242992,-0.040594,1.14,1,427.50
53519,1.41,-7.4,4.5,80.5,-0.7606,-0.0123,-0.0751,0.6447,0.11,1.67,-1.22,43.242992,-0.040594,1.14,1,427.50
53519,1.41,-7.4,4.5,80.5,-0.7606,-0.0123,-0.0751,0.6447,0.11,1.67,-1.22,43.242992,-0.040594,1.14,1,427.50
53519,1.41,-7.4,4.5,80.5,-0.7606,-0.0123,-0.0751,0.6447,0.11,1.67,-1.22,43.242992,-0.040594,1.14,1,427.50
53519,1.41,-7.4,4.5,80.5,-0.7606,-0.0123,-0.0751,0.6447,0.11,1.67,-1.22,43.242992,-0.040594,1.14,1,427.50
53519,1.41,-7.4,4.5,80.5,-0.7606,-0.0123,-0.0751,0.6447,0.11,1.67,-1.22,43.242992,-0.040594,1.14,1,427.50
53532,1.41,-7.5,4.5,80.5,-0.7607,-0.0128,-0.0762,0.6444,-0.33,1.00,-1.58,43.242992,-0.040594,1.32,1,427.50
53532,1.40,-7.5,4.5,80.5,-0.7607,-0.0128,-0.0762,0.6444,-0.33,1.00,-1.58,43.242992,-0.040594,1.32,1,427.50
53532,1.40,-7.5,4.5,80.5,-0.7607,-0.0128,-0.0762,0.6444,-0.33,1.00,-1.58,43.242992,-0.040594,1.32,1,427.50
53532,1.40,-7.5,4.5,80.5,-0.7607,-0.0128,-0.0762,0.6444,-0.33,1.00,-1.58,43.242992,-0.040594,1.32,1,427.50
53532,1.40,-7.5,4.5,80.5,-0.7607,-0.0128,-0.0762,0.6444,-0.33,1.00,-1.58,43.242992,-0.040594,1.32,1,427.50
53545,1.40,-7.5,4.8,80.5,-0.7608,-0.0107,-0.0778,0.6441,0.38,0.44,-1.92,43.242992,-0.040594,1.32,1,427.50
53545,1.40,-7.5,4.8,80.5,-0.7608,-0.0107,-0.0778,0.6441,0.38,0.44,-1.92,43.242992,-0.040594,1.32,1,427.50
53545,1.40,-7.5,4.8,80.5,-0.7608,-0.0107,-0.0778,0.6441,0.38,0.44,-1.92,43.242992,-0.040594,1.32,1,427.50
53545,1.39,-7.5,4.8,80.5,-0.7608,-0.0107,-0.0778,0.6441,0.38,0.44,-1.92,43.242992,-0.040594,1.32,1,427.50
53545,1.39,-7.5,4.8,80.5,-0.7608,-0.0107,-0.0778,0.6441,0.38,0.44,-1.92,43.242992,-0.040594,1.32,1,427.50
53558,1.39,-7.4,5.1,80.6,-0.7600,-0.0083,-0.0787,0.6450,0.66,0.57,-1.54,43.242992,-0.040594,1.32,1,427.50
53558,1.39,-7.4,5.1,80.6,-0.7600,-0.0083,-0.0787,0.6450,0.66,0.57,-1.54,43.242992,-0.040594,1.32,1,427.50
53558,1.38,-7.4,5.1,80.6,-0.7600,-0.0083,-0.0787,0.6450,0.66,0.57,-1.54,43.242992,-0.040594,1.32,1,427.50
53558,1.38,-7.4,5.1,80.6,-0.7600,-0.0083,-0.0787,0.6450,0.66,0.57,-1.54,43.242992,-0.040594,1.32,1,427.50
53558,1.38,-7.4,5.1,80.6,-0.7600,-0.0083,-0.0787,0.6450,0.66,0.57,-1.54,43.242992,-0.040594,1.32,1,427.50
53570,1.38,-7.3,5.4,80.8,-0.7589,-0.0054,-0.0798,0.6462,0.44,0.15,-0.45,43.242992,-0.040594,1.32,1,427.50
53570,1.37,-7.3,5.4,80.8,-0.7589,-0.0054,-0.0798,0.6462,0.44,0.15,-0.45,43.242992,-0.040594,1.32,1,427.50
53570,1.37,-7.3,5.4,80.8,-0.7589,-0.0054,-0.0798,0.6462,0.44,0.15,-0.45,43.242992,-0.040594,1.32,1,427.50
53570,1.37,-7.3,5.4,80.8,-0.7589,-0.0054,-0.0798,0.6462,0.44,0.15,-0.45,43.242992,-0.040594,1.32,1,427.50
53570,1.37,-7.3,5.4,80.8,-0.7589,-0.0054,-0.0798,0.6462,0.44,0.15,-0.45,43.242992,-0.040594,1.32,1,427.50
53583,1.37,-7.1,5.8,81.0,-0.7576,-0.0019,-0.0811,0.6476,0.31,-0.50,0.00,43.242992,-0.040594,1.49,1,427.50
53583,1.37,-7.1,5.8,81.0,-0.7576,-0.0019,-0.0811,0.6476,0.31,-0.50,0.00,43.242992,-0.040594,1.49,1,427.50
53583,1.37,-7.1,5.8,81.0,-0.7576,-0.0019,-0.0811,0.6476,0.31,-0.50,0.00,43.242992,-0.040594,1.49,1,427.50
53583,1.37,-7.1,5.8,81.0,-0.7576,-0.0019,-0.0811,0.6476,0.31,-0.50,0.00,43.242992,-0.040594,1.49,1,427.50
53583,1.37,-7.1,5.8,81.0,-0.7576,-0.0019,-0.0811,0.6476,0.31,-0.50,0.00,43.242992,-0.040594,1.49,1,427.50
53596,1.37,-6.9,6.6,81.4,-0.7548,0.0045,-0.0840,0.6504,0.25,0.05,0.00,43.242992,-0.040594,1.49,1,427.50
53596,1.37,-6.9,6.6,81.4,-0.7548,0.0045,-0.0840,0.6504,0.25,0.05,0.00,43.242992,-0.040594,1.49,1,427.50
53596,1.36,-6.9,6.6,81.4,-0.7548,0.0045,-0.0840,0.6504,0.25,0.05,0.00,43.242992,-0.040594,1.49,1,427.50
53596,1.37,-6.9,6.6,81.4,-0.7548,0.0045,-0.0840,0.6504,0.25,0.05,0.00,43.242992,-0.040594,1.49,1,427.50
53596,1.37,-6.9,6.6,81.4,-0.7548,0.0045,-0.0840,0.6504,0.25,0.05,0.00,43.242992,-0.040594,1.49,1,427.50
53609,1.37,-6.8,6.9,81.6,-0.7534,0.0065,-0.0849,0.6519,0.05,0.36,-0.65,43.242992,-0.040594,1.49,1,427.50
53609,1.36,-6.8,6.9,81.6,-0.7534,0.0065,-0.0849,0.6519,0.05,0.36,-0.65,43.242992,-0.040594,1.49,1,427.50
53609,1.36,-6.8,6.9,81.6,-0.7534,0.0065,-0.0849,0.6519,0.05,0.36,-0.65,43.242992,-0.040594,1.49,1,427.50
53609,1.36,-6.8,6.9,81.6,-0.7534,0.0065,-0.0849,0.6519,0.05,0.36,-0.65,43.242992,-0.040594,1.49,1,427.50
53609,1.36,-6.8,6.9,81.6,-0.7534,0.0065,-0.0849,0.6519,0.05,0.36,-0.65,43.242992,-0.040594,1.49,1,427.50
53621,1.36,-6.7,7.1,81.9,-0.7521,0.0078,-0.0852,0.6533,0.19,0.58,-0.93,43.242992,-0.040594,1.49,1,427.50
53621,1.36,-6.7,7.1,81.9,-0.7521,0.0078,-0.0852,0.6533,0.19,0.58,-0.93,43.242992,-0.040594,1.49,1,427.50
53621,1.36,-6.7,7.1,81.9,-0.7521,0.0078,-0.0852,0.6533,0.19,0.58,-0.93,43.242992,-0.040594,1.49,1,427.50
53621,1.36,-6.7,7.1,81.9,-0.7521,0.0078,-0.0852,0.6533,0.19,0.58,-0.93,43.242992,-0.040594,1.49,1,427.50
53621,1.36,-6.7,7.1,81.9,-0.7521,0.0078,-0.0852,0.6533,0.19,0.58,-0.93,43.242992,-0.040594,1.49,1,427.50
53634,1.36,-6.6,7.1,82.1,-0.7510,0.0086,-0.0848,0.6546,0.10,0.57,-1.12,43.242992,-0.040594,1.66,1,427.50
53634,1.36,-6.6,7.1,82.1,-0.7510,0.0086,-0.0848,0.6546,0.10,0.57,-1.12,43.242992,-0.040594,1.66,1,427.50
53634,1.36,-6.6,7.1,82.1,-0.7510,0.0086,-0.0848,0.6546,0.10,0.57,-1.12,43.242992,-0.040594,1.66,1,427.50
53634,1.36,-6.6,7.1,82.1,-0.7510,0.0086,-0.0848,0.6546,0.10,0.57,-1.12,43.242992,-0.040594,1.66,1,427.50
53634,1.36,-6.6,7.1,82.1,-0.7510,0.0086,-0.0848,0.6546,0.10,0.57,-1.12,43.242992,-0.040594,1.66,1,427.50
53647,1.35,-6.5,7.1,82.3,-0.7500,0.0089,-0.0844,0.6560,0.00,0.68,-1.13,43.242992,-0.040594,1.66,1,427.50
53647,1.35,-6.5,7.1,82.3,-0.7500,0.0089,-0.0844,0.6560,0.00,0.68,-1.13,43.242992,-0.040594,1.66,1,427.50
53647,1.35,-6.5,7.1,82.3,-0.7500,0.0089,-0.0844,0.6560,0.00,0.68,-1.13,43.242992,-0.040594,1.66,1,427.50
53647,1.35,-6.5,7.1,82.3,-0.7500,0.0089,-0.0844,0.6560,0.00,0.68,-1.13,43.242992,-0.040594,1.66,1,427.50
53647,1.34,-6.5,7.1,82.3,-0.7500,0.0089,-0.0844,0.6560,0.00,0.68,-1.13,43.242992,-0.040594,1.66,1,427.50
53660,1.34,-6.3,7.3,82.6,-0.7481,0.0114,-0.0844,0.6580,0.93,-0.46,-0.73,43.242992,-0.040594,1.66,1,427.50
53660,1.34,-6.3,7.3,82.6,-0.7481,0.0114,-0.0844,0.6580,0.93,-0.46,-0.73,43.242992,-0.040594,1.66,1,427.50
53660,1.34,-6.3,7.3,82.6,-0.7481,0.0114,-0.0844,0.6580,0.93,-0.46,-0.73,43.242992,-0.040594,1.66,1,427.50
53660,1.33,-6.3,7.3,82.6,-0.7481,0.0114,-0.0844,0.6580,0.93,-0.46,-0.73,43.242992,-0.040594,1.66,1,427.50
53660,1.33,-6.3,7.3,82.6,-0.7481,0.0114,-0.0844,0.6580,0.93,-0.46,-0.73,43.242992,-0.040594,1.66,1,427.50
53672,1.33,-6.3,7.6,82.6,-0.7479,0.0136,-0.0856,0.6580,0.81,-0.70,0.15,43.242992,-0.040594,1.66,1,427.50
53672,1.33,-6.3,7.6,82.6,-0.7479,0.0136,-0.0856,0.6580,0.81,-0.70,0.15,43.242992,-0.040594,1.66,1,427.50
53672,1.32,-6.3,7.6,82.6,-0.7479,0.0136,-0.0856,0.6580,0.81,-0.70,0.15,43.242992,-0.040594,1.66,1,427.50
53672,1.32,-6.3,7.6,82.6,-0.7479,0.0136,-0.0856,0.6580,0.81,-0.70,0.15,43.242992,-0.040594,1.66,1,427.50
53672,1.32,-6.3,7.6,82.6,-0.7479,0.0136,-0.0856,0.6580,0.81,-0.70,0.15,43.242992,-0.040594,1.66,1,427.50
53685,1.32,-6.2,8.0,82.5,-0.7482,0.0164,-0.0878,0.6572,0.83,-0.97,0.86,43.242992,-0.040594,1.83,1,427.50
53685,1.32,-6.2,8.0,82.5,-0.7482,0.0164,-0.0878,0.6572,0.83,-0.97,0.86,43.242992,-0.040594,1.83,1,427.50
53685,1.32,-6.2,8.0,82.5,-0.7482,0.0164,-0.0878,0.6572,0.83,-0.97,0.86,43.242992,-0.040594,1.83,1,427.50
53685,1.32,-6.2,8.0,82.5,-0.7482,0.0164,-0.0878,0.6572,0.83,-0.97,0.86,43.242992,-0.040594,1.83,1,427.50
53685,1.30,-6.2,8.0,82.5,-0.7482,0.0164,-0.0878,0.6572,0.83,-0.97,0.86,43.242992,-0.040594,1.83,1,427.50
53698,1.30,-6.3,8.5,82.3,-0.7492,0.0195,-0.0907,0.6557,0.43,-0.67,1.50,43.242992,-0.040594,1.83,1,427.50
53698,1.30,-6.3,8.5,82.3,-0.7492,0.0195,-0.0907,0.6557,0.43,-0.67,1.50,43.242992,-0.040594,1.83,1,427.50
53698,1.30,-6.3,8.5,82.3,-0.7492,0.0195,-0.0907,0.6557,0.43,-0.67,1.50,43.242992,-0.040594,1.83,1,427.50
53698,1.30,-6.3,8.5,82.3,-0.7492,0.0195,-0.0907,0.6557,0.43,-0.67,1.50,43.242992,-0.040594,1.83,1,427.50
53698,1.29,-6.3,8.5,82.3,-0.7492,0.0195,-0.0907,0.6557,0.43,-0.67,1.50,43.242992,-0.040594,1.83,1,427.50
53711,1.29,-6.4,9.4,81.7,-0.7521,0.0252,-0.0966,0.6513,-0.34,-0.22,0.95,43.242992,-0.040594,1.83,1,427.50
53711,1.29,-6.4,9.4,81.7,-0.7521,0.0252,-0.0966,0.6513,-0.34,-0.22,0.95,43.242992,-0.040594,1.83,1,427.50
53711,1.29,-6.4,9.4,81.7,-0.7521,0.0252,-0.0966,0.6513,-0.34,-0.22,0.95,43.242992,-0.040594,1.83,1,427.50
53711,1.29,-6.4,9.4,81.7,-0.7521,0.0252,-0.0966,0.6513,-0.34,-0.22,0.95,43.242992,-0.040594,1.83,1,427.50
53711,1.29,-6.4,9.4,81.7,-0.7521,0.0252,-0.0966,0.6513,-0.34,-0.22,0.95,43.242992,-0.040594,1.83,1,427.50
53723,1.29,-6.4,9.8,81.4,-0.7538,0.0278,-0.0988,0.6489,-0.51,0.03,0.63,43.242992,-0.040594,1.83,1,427.50
53723,1.28,-6.4,9.8,81.4,-0.7538,0.0278,-0.0988,0.6489,-0.51,0.03,0.63,43.242992,-0.040594,1.83,1,427.50
53723,1.28,-6.4,9.8,81.4,-0.7538,0.0278,-0.0988,0.6489,-0.51,0.03,0.63,43.242992,-0.040594,1.83,1,427.50
53723,1.28,-6.4,9.8,81.4,-0.7538,0.0278,-0.0988,0.6489,-0.51,0.03,0.63,43.242992,-0.040594,1.83,1,427.50
53723,1.28,-6.4,9.8,81.4,-0.7538,0.0278,-0.0988,0.6489,-0.51,0.03,0.63,43.242992,-0.040594,1.83,1,427.50
53736,1.28,-6.3,10.1,81.0,-0.7557,0.0308,-0.1000,0.6464,-0.31,0.11,0.34,43.242992,-0.040594,2.03,1,427.50
53736,1.28,-6.3,10.1,81.0,-0.7557,0.0308,-0.1000,0.6464,-0.31,0.11,0.34,43.242992,-0.040594,2.03,1,427.50
53736,1.27,-6.3,10.1,81.0,-0.7557,0.0308,-0.1000,0.6464,-0.31,0.11,0.34,43.242992,-0.040594,2.03,1,427.50
53736,1.27,-6.3,10.1,81.0,-0.7557,0.0308,-0.1000,0.6464,-0.31,0.11,0.34,43.242992,-0.040594,2.03,1,427.50
53736,1.27,-6.3,10.1,81.0,-0.7557,0.0308,-0.1000,0.6464,-0.31,0.11,0.34,43.242992,-0.040594,2.03,1,427.50
53749,1.27,-6.1,10.5,80.6,-0.7575,0.0346,-0.1006,0.6440,-0.27,-0.34,0.27,43.242992,-0.040594,2.03,1,427.50
53749,1.27,-6.1,10.5,80.6,-0.7575,0.0346,-0.1006,0.6440,-0.27,-0.34,0.27,43.242992,-0.040594,2.03,1,427.50
53749,1.26,-6.1,10.5,80.6,-0.7575,0.0346,-0.1006,0.6440,-0.27,-0.34,0.27,43.242992,-0.040594,2.03,1,427.50
53749,1.26,-6.1,10.5,80.6,-0.7575,0.0346,-0.1006,0.6440,-0.27,-0.34,0.27,43.242992,-0.040594,2.03,1,427.50
53749,1.26,-6.1,10.5,80.6,-0.7575,0.0346,-0.1006,0.6440,-0.27,-0.34,0.27,43.242992,-0.040594,2.03,1,427.50
53762,1.26,-5.5,11.3,79.7,-0.7625,0.0443,-0.1010,0.6375,-0.44,-0.70,1.02,43.242992,-0.040594,2.03,1,427.50
53762,1.26,-5.5,11.3,79.7,-0.7625,0.0443,-0.1010,0.6375,-0.44,-0.70,1.02,43.242992,-0.040594,2.03,1,427.50
53762,1.26,-5.5,11.3,79.7,-0.7625,0.0443,-0.1010,0.6375,-0.44,-0.70,1.02,43.242992,-0.040594,2.03,1,427.50
53762,1.26,-5.5,11.3,79.7,-0.7625,0.0443,-0.1010,0.6375,-0.44,-0.70,1.02,43.242992,-0.040594,2.03,1,427.50
53762,1.26,-5.5,11.3,79.7,-0.7625,0.0443,-0.1010,0.6375,-0.44,-0.70,1.02,43.242992,-0.040594,2.03,1,427.50
53774,1.26,-5.2,11.6,79.3,-0.7645,0.0485,-0.1007,0.6348,-0.51,-0.70,1.27,43.242992,-0.040594,2.03,1,427.50
53774,1.26,-5.2,11.6,79.3,-0.7645,0.0485,-0.1007,0.6348,-0.51,-0.70,1.27,43.242992,-0.040594,2.03,1,427.50
53774,1.26,-5.2,11.6,79.3,-0.7645,0.0485,-0.1007,0.6348,-0.51,-0.70,1.27,43.242992,-0.040594,2.03,1,427.50
53774,1.26,-5.2,11.6,79.3,-0.7645,0.0485,-0.1007,0.6348,-0.51,-0.70,1.27,43.242992,-0.040594,2.03,1,427.50
53774,1.26,-5.2,11.6,79.3,-0.7645,0.0485,-0.1007,0.6348,-0.51,-0.70,1.27,43.242992,-0.040594,2.03,1,427.50
53787,1.26,-5.0,11.8,79.1,-0.7658,0.0515,-0.1003,0.6329,-0.35,-0.37,1.21,43.242992,-0.040594,2.20,1,427.50
53787,1.26,-5.0,11.8,79.1,-0.7658,0.0515,-0.1003,0.6329,-0.35,-0.37,1.21,43.242992,-0.040594,2.20,1,427.50
53787,1.26,-5.0,11.8,79.1,-0.7658,0.0515,-0.1003,0.6329,-0.35,-0.37,1.21,43.242992,-0.040594,2.20,1,427.50
53787,1.26,-5.0,11.8,79.1,-0.7658,0.0515,-0.1003,0.6329,-0.35,-0.37,1.21,43.242992,-0.040594,2.20,1,427.50
53787,1.26,-5.0,11.8,79.1,-0.7658,0.0515,-0.1003,0.6329,-0.35,-0.37,1.21,43.242992,-0.040594,2.20,1,427.50
53800,1.26,-4.9,12.0,78.9,-0.7669,0.0535,-0.1002,0.6316,-0.37,-0.46,0.77,43.242992,-0.040594,2.20,1,427.50
53800,1.26,-4.9,12.0,78.9,-0.7669,0.0535,-0.1002,0.6316,-0.37,-0.46,0.77,43.242992,-0.040594,2.20,1,427.50
53800,1.26,-4.9,12.0,78.9,-0.7669,0.0535,-0.1002,0.6316,-0.37,-0.46,0.77,43.242992,-0.040594,2.20,1,427.50
53800,1.26,-4.9,12.0,78.9,-0.7669,0.0535,-0.1002,0.6316,-0.37,-0.46,0.77,43.242992,-0.040594,2.20,1,427.50
53800,1.26,-4.9,12.0,78.9,-0.7669,0.0535,-0.1002,0.6316,-0.37,-0.46,0.77,43.242992,-0.040594,2.20,1,427.50
53813,1.26,-4.9,12.3,78.8,-0.7674,0.0552,-0.1015,0.6305,-0.07,0.05,0.86,43.242992,-0.040594,2.20,1,427.50
53813,1.26,-4.9,12.3,78.8,-0.7674,0.0552,-0.1015,0.6305,-0.07,0.05,0.86,43.242992,-0.040594,2.20,1,427.50
53813,1.26,-4.9,12.3,78.8,-0.7674,0.0552,-0.1015,0.6305,-0.07,0.05,0.86,43.242992,-0.040594,2.20,1,427.50
53813,1.26,-4.9,12.3,78.8,-0.7674,0.0552,-0.1015,0.6305,-0.07,0.05,0.86,43.242992,-0.040594,2.20,1,427.50
53813,1.26,-4.9,12.3,78.8,-0.7674,0.0552,-0.1015,0.6305,-0.07,0.05,0.86,43.242992,-0.040594,2.20,1,427.50
53825,1.26,-5.0,12.3,78.8,-0.7672,0.0549,-0.1026,0.6306,-0.52,-0.11,0.88,43.242992,-0.040594,2.20,1,427.50
53825,1.26,-5.0,12.3,78.8,-0.7672,0.0549,-0.1026,0.6306,-0.52,-0.11,0.88,43.242992,-0.040594,2.20,1,427.50
53825,1.26,-5.0,12.3,78.8,-0.7672,0.0549,-0.1026,0.6306,-0.52,-0.11,0.88,43.242992,-0.040594,2.20,1,427.50
53825,1.26,-5.0,12.3,78.8,-0.7672,0.0549,-0.1026,0.6306,-0.52,-0.11,0.88,43.242992,-0.040594,2.20,1,427.50
53825,1.26,-5.0,12.3,78.8,-0.7672,0.0549,-0.1026,0.6306,-0.52,-0.11,0.88,43.242992,-0.040594,2.20,1,427.50
53838,1.26,-5.1,12.3,78.8,-0.7667,0.0540,-0.1038,0.6312,-0.83,0.00,1.04,43.242992,-0.040594,2.31,1,427.50
53838,1.26,-5.1,12.3,78.8,-0.7667,0.0540,-0.1038,0.6312,-0.83,0.00,1.04,43.242992,-0.040594,2.31,1,427.50
53838,1.26,-5.1,12.3,78.8,-0.7667,0.0540,-0.1038,0.6312,-0.83,0.00,1.04,43.242992,-0.040594,2.31,1,427.50
53838,1.27,-5.1,12.3,78.8,-0.7667,0.0540,-0.1038,0.6312,-0.83,0.00,1.04,43.242992,-0.040594,2.31,1,427.50
53838,1.27,-5.1,12.3,78.8,-0.7667,0.0540,-0.1038,0.6312,-0.83,0.00,1.04,43.242992,-0.040594,2.31,1,427.50
53851,1.26,-5.3,12.3,79.0,-0.7659,0.0527,-0.1045,0.6322,-0.91,0.00,0.73,43.242992,-0.040594,2.31,1,427.50
53851,1.27,-5.3,12.3,79.0,-0.7659,0.0527,-0.1045,0.6322,-0.91,0.00,0.73,43.242992,-0.040594,2.31,1,427.50
53851,1.27,-5.3,12.3,79.0,-0.7659,0.0527,-0.1045,0.6322,-0.91,0.00,0.73,43.242992,-0.040594,2.31,1,427.50
53851,1.27,-5.3,12.3,79.0,-0.7659,0.0527,-0.1045,0.6322,-0.91,0.00,0.73,43.242992,-0.040594,2.31,1,427.50
53851,1.27,-5.3,12.3,79.0,-0.7659,0.0527,-0.1045,0.6322,-0.91,0.00,0.73,43.242992,-0.040594,2.31,1,427.50
53864,1.27,-5.4,12.0,79.4,-0.7637,0.0494,-0.1034,0.6351,-1.03,-0.13,0.63,43.242992,-0.040594,2.31,1,427.50
53864,1.28,-5.4,12.0,79.4,-0.7637,0.0494,-0.1034,0.6351,-1.03,-0.13,0.63,43.242992,-0.040594,2.31,1,427.50
53864,1.27,-5.4,12.0,79.4,-0.7637,0.0494,-0.1034,0.6351,-1.03,-0.13,0.63,43.242992,-0.040594,2.31,1,427.50
53864,1.28,-5.4,12.0,79.4,-0.7637,0.0494,-0.1034,0.6351,-1.03,-0.13,0.63,43.242992,-0.040594,2.31,1,427.50
53864,1.28,-5.4,12.0,79.4,-0.7637,0.0494,-0.1034,0.6351,-1.03,-0.13,0.63,43.242992,-0.040594,2.31,1,427.50
53876,1.28,-5.3,11.7,79.7,-0.7623,0.0479,-0.1018,0.6372,-1.01,-0.30,0.83,43.242992,-0.040594,2.31,1,427.39
53876,1.28,-5.3,11.7,79.7,-0.7623,0.0479,-0.1018,0.6372,-1.01,-0.30,0.83,43.242992,-0.040594,2.31,1,427.39
53876,1.28,-5.3,11.7,79.7,-0.7623,0.0479,-0.1018,0.6372,-1.01,-0.30,0.83,43.242992,-0.040594,2.31,1,427.39
53876,1.29,-5.3,11.7,79.7,-0.7623,0.0479,-0.1018,0.6372,-1.01,-0.30,0.83,43.242992,-0.040594,2.31,1,427.39
53876,1.29,-5.3,11.7,79.7,-0.7623,0.0479,-0.1018,0.6372,-1.01,-0.30,0.83,43.242992,-0.040594,2.31,1,427.39
53889,1.29,-5.3,11.4,80.0,-0.7611,0.0463,-0.0998,0.6391,-0.38,-0.15,1.04,43.242992,-0.040594,2.32,1,427.39
53889,1.28,-5.3,11.4,80.0,-0.7611,0.0463,-0.0998,0.6391,-0.38,-0.15,1.04,43.242992,-0.040594,2.32,1,427.39
53889,1.29,-5.3,11.4,80.0,-0.7611,0.0463,-0.0998,0.6391,-0.38,-0.15,1.04,43.242992,-0.040594,2.32,1,427.39
53889,1.29,-5.3,11.4,80.0,-0.7611,0.0463,-0.0998,0.6391,-0.38,-0.15,1.04,43.242992,-0.040594,2.32,1,427.39
53889,1.29,-5.3,11.4,80.0,-0.7611,0.0463,-0.0998,0.6391,-0.38,-0.15,1.04,43.242992,-0.040594,2.32,1,427.39
53902,1.29,-5.2,11.1,80.2,-0.7600,0.0444,-0.0979,0.6409,-0.49,-0.05,1.04,43.242992,-0.040594,2.32,1,427.39
53902,1.30,-5.2,11.1,80.2,-0.7600,0.0444,-0.0979,0.6409,-0.49,-0.05,1.04,43.242992,-0.040594,2.32,1,427.39
53902,1.30,-5.2,11.1,80.2,-0.7600,0.0444,-0.0979,0.6409,-0.49,-0.05,1.04,43.242992,-0.040594,2.32,1,427.39
53902,1.30,-5.2,11.1,80.2,-0.7600,0.0444,-0.0979,0.6409,-0.49,-0.05,1.04,43.242992,-0.040594,2.32,1,427.39
53902,1.30,-5.2,11.1,80.2,-0.7600,0.0444,-0.0979,0.6409,-0.49,-0.05,1.04,43.242992,-0.040594,2.32,1,427.39
53915,1.30,-5.3,10.5,80.5,-0.7589,0.0400,-0.0950,0.6429,-0.47,-0.01,0.98,43.242992,-0.040594,2.32,1,427.39
53915,1.30,-5.3,10.5,80.5,-0.7589,0.0400,-0.0950,0.6429,-0.47,-0.01,0.98,43.242992,-0.040594,2.32,1,427.39
53915,1.32,-5.3,10.5,80.5,-0.7589,0.0400,-0.0950,0.6429,-0.47,-0.01,0.98,43.242992,-0.040594,2.32,1,427.39
53915,1.32,-5.3,10.5,80.5,-0.7589,0.0400,-0.0950,0.6429,-0.47,-0.01,0.98,43.242992,-0.040594,2.32,1,427.39
53915,1.32,-5.3,10.5,80.5,-0.7589,0.0400,-0.0950,0.6429,-0.47,-0.01,0.98,43.242992,-0.040594,2.32,1,427.39
53927,1.32,-5.3,10.2,80.5,-0.7588,0.0374,-0.0936,0.6434,-0.45,-0.11,1.14,43.242992,-0.040594,2.32,1,427.39
53927,1.33,-5.3,10.2,80.5,-0.7588,0.0374,-0.0936,0.6434,-0.45,-0.11,1.14,43.242992,-0.040594,2.32,1,427.39
53927,1.33,-5.3,10.2,80.5,-0.7588,0.0374,-0.0936,0.6434,-0.45,-0.11,1.14,43.242992,-0.040594,2.32,1,427.39
53927,1.33,-5.3,10.2,80.5,-0.7588,0.0374,-0.0936,0.6434,-0.45,-0.11,1.14,43.242992,-0.040594,2.32,1,427.39
53927,1.34,-5.3,10.2,80.5,-0.7588,0.0374,-0.0936,0.6434,-0.45,-0.11,1.14,43.242992,-0.040594,2.32,1,427.39
53940,1.34,-5.4,9.8,80.5,-0.7597,0.0306,-0.0900,0.6431,-0.57,-0.37,1.50,43.242992,-0.040594,2.30,1,427.39
53940,1.34,-5.4,9.8,80.5,-0.7597,0.0306,-0.0900,0.6431,-0.57,-0.37,1.50,43.242992,-0.040594,2.30,1,427.39
53940,1.34,-5.4,9.8,80.5,-0.7597,0.0306,-0.0900,0.6431,-0.57,-0.37,1.50,43.242992,-0.040594,2.30,1,427.39
53940,1.35,-5.4,9.8,80.5,-0.7597,0.0306,-0.0900,0.6431,-0.57,-0.37,1.50,43.242992,-0.040594,2.30,1,427.39
53940,1.35,-5.4,9.8,80.5,-0.7597,0.0306,-0.0900,0.6431,-0.57,-0.37,1.50,43.242992,-0.040594,2.30,1,427.39
53953,1.36,-5.6,8.8,80.3,-0.7616,0.0214,-0.0842,0.6420,-1.11,0.63,-0.55,43.242992,-0.040594,2.30,1,427.39
53953,1.36,-5.6,8.8,80.3,-0.7616,0.0214,-0.0842,0.6420,-1.11,0.63,-0.55,43.242992,-0.040594,2.30,1,427.39
53953,1.36,-5.6,8.8,80.3,-0.7616,0.0214,-0.0842,0.6420,-1.11,0.63,-0.55,43.242992,-0.040594,2.30,1,427.39
53953,1.37,-5.6,8.8,80.3,-0.7616,0.0214,-0.0842,0.6420,-1.11,0.63,-0.55,43.242992,-0.040594,2.30,1,427.39
53953,1.37,-5.6,8.8,80.3,-0.7616,0.0214,-0.0842,0.6420,-1.11,0.63,-0.55,43.242992,-0.040594,2.30,1,427.39
53966,1.37,-5.7,8.1,80.2,-0.7616,0.0214,-0.0842,0.6420,-1.11,0.63,-0.55,43.242992,-0.040594,2.30,1,427.50
53966,1.37,-5.7,8.1,80.2,-0.7616,0.0214,-0.0842,0.6420,-1.11,0.63,-0.55,43.242992,-0.040594,2.30,1,427.50
53966,1.37,-5.7,8.1,80.2,-0.7616,0.0214,-0.0842,0.6420,-1.11,0.63,-0.55,43.242992,-0.040594,2.30,1,427.50
53966,1.38,-5.7,8.1,80.2,-0.7616,0.0214,-0.0842,0.6420,-1.11,0.63,-0.55,43.242992,-0.040594,2.30,1,427.50
53966,1.38,-5.7,8.1,80.2,-0.7616,0.0214,-0.0842,0.6420,-1.11,0.63,-0.55,43.242992,-0.040594,2.30,1,427.50
53978,1.38,-5.7,7.4,80.0,-0.7631,0.0170,-0.0800,0.6410,-0.79,0.45,-0.90,43.242992,-0.040594,2.30,1,427.50
53978,1.39,-5.7,7.4,80.0,-0.7631,0.0170,-0.0800,0.6410,-0.79,0.45,-0.90,43.242992,-0.040594,2.30,1,427.50
53978,1.39,-5.7,7.4,80.0,-0.7631,0.0170,-0.0800,0.6410,-0.79,0.45,-0.90,43.242992,-0.040594,2.30,1,427.50
53978,1.40,-5.7,7.4,80.0,-0.7631,0.0170,-0.0800,0.6410,-0.79,0.45,-0.90,43.242992,-0.040594,2.30,1,427.50
53978,1.40,-5.7,7.4,80.0,-0.7631,0.0170,-0.0800,0.6410,-0.79,0.45,-0.90,43.242992,-0.040594,2.30,1,427.50
53991,1.41,-5.5,6.6,79.7,-0.7667,0.0097,-0.0698,0.6381,-0.73,0.27,-0.05,43.242992,-0.040594,2.18,1,427.50
53991,1.41,-5.5,6.6,79.7,-0.7667,0.0097,-0.0698,0.6381,-0.73,0.27,-0.05,43.242992,-0.040594,2.18,1,427.50
53991,1.42,-5.5,6.6,79.7,-0.7667,0.0097,-0.0698,0.6381,-0.73,0.27,-0.05,43.242992,-0.040594,2.18,1,427.50
53991,1.44,-5.5,6.6,79.7,-0.7667,0.0097,-0.0698,0.6381,-0.73,0.27,-0.05,43.242992,-0.040594,2.18,1,427.50
53991,1.45,-5.5,6.6,79.7,-0.7667,0.0097,-0.0698,0.6381,-0.73,0.27,-0.05,43.242992,-0.040594,2.18,1,427.50
54004,1.45,-5.0,4.1,79.1,-0.7689,0.0001,-0.0573,0.6367,-0.77,0.02,1.01,43.242992,-0.040594,2.18,1,427.50
54004,1.45,-5.0,4.1,79.1,-0.7689,0.0001,-0.0573,0.6367,-0.77,0.02,1.01,43.242992,-0.040594,2.18,1,427.50
54004,1.46,-5.0,4.1,79.1,-0.7689,0.0001,-0.0573,0.6367,-0.77,0.02,1.01,43.242992,-0.040594,2.18,1,427.50
54004,1.47,-5.0,4.1,79.1,-0.7689,0.0001,-0.0573,0.6367,-0.77,0.02,1.01,43.242992,-0.040594,2.18,1,427.50
54004,1.48,-5.0,4.1,79.1,-0.7689,0.0001,-0.0573,0.6367,-0.77,0.02,1.01,43.242992,-0.040594,2.18,1,427.50
54017,1.48,-5.0,4.1,79.1,-0.7689,0.0001,-0.0573,0.6367,-0.67,-0.22,1.97,43.242992,-0.040594,2.18,1,427.50
54017,1.49,-5.0,4.1,79.1,-0.7689,0.0001,-0.0573,0.6367,-0.67,-0.22,1.97,43.242992,-0.040594,2.18,1,427.50
54017,1.50,-5.0,4.1,79.1,-0.7689,0.0001,-0.0573,0.6367,-0.67,-0.22,1.97,43.242992,-0.040594,2.18,1,427.50
54017,1.50,-5.0,4.1,79.1,-0.7689,0.0001,-0.0573,0.6367,-0.67,-0.22,1.97,43.242992,-0.040594,2.18,1,427.50
54017,1.51,-5.0,4.1,79.1,-0.7689,0.0001,-0.0573,0.6367,-0.67,-0.22,1.97,43.242992,-0.040594,2.18,1,427.50
54029,1.52,-4.8,3.1,79.2,-0.7689,-0.0126,-0.0419,0.6378,-0.20,-0.49,3.08,43.242992,-0.040594,2.18,1,427.50
54029,1.52,-4.8,3.1,79.2,-0.7689,-0.0126,-0.0419,0.6378,-0.20,-0.49,3.08,43.242992,-0.040594,2.18,1,427.50
54029,1.54,-4.8,3.1,79.2,-0.7689,-0.0126,-0.0419,0.6378,-0.20,-0.49,3.08,43.242992,-0.040594,2.18,1,427.50
54029,1.55,-4.8,3.1,79.2,-0.7689,-0.0126,-0.0419,0.6378,-0.20,-0.49,3.08,43.242992,-0.040594,2.18,1,427.50
54029,1.57,-4.8,3.1,79.2,-0.7689,-0.0126,-0.0419,0.6378,-0.20,-0.49,3.08,43.242992,-0.040594,2.18,1,427.50
54042,1.58,-4.5,0.6,79.5,-0.7681,-0.0206,-0.0342,0.6390,-0.11,-0.74,2.88,43.242992,-0.040594,2.03,1,427.60
54042,1.58,-4.5,0.6,79.5,-0.7681,-0.0206,-0.0342,0.6390,-0.11,-0.74,2.88,43.242992,-0.040594,2.03,1,427.60
54042,1.59,-4.5,0.6,79.5,-0.7681,-0.0206,-0.0342,0.6390,-0.11,-0.74,2.88,43.242992,-0.040594,2.03,1,427.60
54042,1.60,-4.5,0.6,79.5,-0.7681,-0.0206,-0.0342,0.6390,-0.11,-0.74,2.88,43.242992,-0.040594,2.03,1,427.60
54042,1.61,-4.5,0.6,79.5,-0.7681,-0.0206,-0.0342,0.6390,-0.11,-0.74,2.88,43.242992,-0.040594,2.03,1,427.60
54055,1.61,-4.6,-1.8,79.7,-0.7666,-0.0391,-0.0208,0.6405,-0.03,0.03,1.55,43.242992,-0.040594,2.03,1,427.60
54055,1.63,-4.6,-1.8,79.7,-0.7666,-0.0391,-0.0208,0.6405,-0.03,0.03,1.55,43.242992,-0.040594,2.03,1,427.60
54055,1.63,-4.6,-1.8,79.7,-0.7666,-0.0391,-0.0208,0.6405,-0.03,0.03,1.55,43.242992,-0.040594,2.03,1,427.60
54055,1.65,-4.6,-1.8,79.7,-0.7666,-0.0391,-0.0208,0.6405,-0.03,0.03,1.55,43.242992,-0.040594,2.03,1,427.60
54055,1.65,-4.6,-1.8,79.7,-0.7666,-0.0391,-0.0208,0.6405,-0.03,0.03,1.55,43.242992,-0.040594,2.03,1,427.60
54068,1.66,-4.8,-3.0,79.8,-0.7658,-0.0474,-0.0155,0.6410,-0.07,-0.46,1.25,43.242992,-0.040594,2.03,1,427.60
54068,1.66,-4.8,-3.0,79.8,-0.7658,-0.0474,-0.0155,0.6410,-0.07,-0.46,1.25,43.242992,-0.040594,2.03,1,427.60
54068,1.69,-4.8,-3.0,79.8,-0.7658,-0.0474,-0.0155,0.6410,-0.07,-0.46,1.25,43.242992,-0.040594,2.03,1,427.60
54068,1.69,-4.8,-3.0,79.8,-0.7658,-0.0474,-0.0155,0.6410,-0.07,-0.46,1.25,43.242992,-0.040594,2.03,1,427.60
54068,1.70,-4.8,-3.0,79.8,-0.7658,-0.0474,-0.0155,0.6410,-0.07,-0.46,1.25,43.242992,-0.040594,2.03,1,427.60
54080,1.71,-4.9,-4.0,79.8,-0.7653,-0.0547,-0.0109,0.6411,-0.20,-0.56,1.11,43.242992,-0.040594,2.03,1,427.60
54080,1.72,-4.9,-4.0,79.8,-0.7653,-0.0547,-0.0109,0.6411,-0.20,-0.56,1.11,43.242992,-0.040594,2.03,1,427.60
54080,1.73,-4.9,-4.0,79.8,-0.7653,-0.0547,-0.0109,0.6411,-0.20,-0.56,1.11,43.242992,-0.040594,2.03,1,427.60
54080,1.73,-4.9,-4.0,79.8,-0.7653,-0.0547,-0.0109,0.6411,-0.20,-0.56,1.11,43.242992,-0.040594,2.03,1,427.60
54080,1.72,-4.9,-4.0,79.8,-0.7653,-0.0547,-0.0109,0.6411,-0.20,-0.56,1.11,43.242992,-0.040594,2.03,1,427.60
54093,1.71,-5.0,-4.9,79.7,-0.7657,-0.0614,-0.0057,0.6401,-0.25,-0.49,0.98,43.242992,-0.040594,1.90,1,427.60
54093,1.72,-5.0,-4.9,79.7,-0.7657,-0.0614,-0.0057,0.6401,-0.25,-0.49,0.98,43.242992,-0.040594,1.90,1,427.60
54093,1.73,-5.0,-4.9,79.7,-0.7657,-0.0614,-0.0057,0.6401,-0.25,-0.49,0.98,43.242992,-0.040594,1.90,1,427.60
54093,1.73,-5.0,-4.9,79.7,-0.7657,-0.0614,-0.0057,0.6401,-0.25,-0.49,0.98,43.242992,-0.040594,1.90,1,427.60
54093,1.71,-5.0,-4.9,79.7,-0.7657,-0.0614,-0.0057,0.6401,-0.25,-0.49,0.98,43.242992,-0.040594,1.90,1,427.60
54106,1.67,-4.7,-7.3,79.1,-0.7681,-0.0762,0.0091,0.6356,0.46,-0.27,-0.03,43.242992,-0.040594,1.90,1,427.60
54106,1.66,-4.7,-7.3,79.1,-0.7681,-0.0762,0.0091,0.6356,0.46,-0.27,-0.03,43.242992,-0.040594,1.90,1,427.60
54106,1.65,-4.7,-7.3,79.1,-0.7681,-0.0762,0.0091,0.6356,0.46,-0.27,-0.03,43.242992,-0.040594,1.90,1,427.60
54106,1.63,-4.7,-7.3,79.1,-0.7681,-0.0762,0.0091,0.6356,0.46,-0.27,-0.03,43.242992,-0.040594,1.90,1,427.60
54106,1.63,-4.7,-7.3,79.1,-0.7681,-0.0762,0.0091,0.6356,0.46,-0.27,-0.03,43.242992,-0.040594,1.90,1,427.60
54119,1.61,-4.3,-9.0,78.7,-0.7697,-0.0857,0.0203,0.6322,-0.18,0.56,1.00,43.242992,-0.040594,1.90,1,427.60
54119,1.60,-4.3,-9.0,78.7,-0.7697,-0.0857,0.0203,0.6322,-0.18,0.56,1.00,43.242992,-0.040594,1.90,1,427.60
54119,1.59,-4.3,-9.0,78.7,-0.7697,-0.0857,0.0203,0.6322,-0.18,0.56,1.00,43.242992,-0.040594,1.90,1,427.60
54119,1.58,-4.3,-9.0,78.7,-0.7697,-0.0857,0.0203,0.6322,-0.18,0.56,1.00,43.242992,-0.040594,1.90,1,427.60
54119,1.57,-4.3,-9.0,78.7,-0.7697,-0.0857,0.0203,0.6322,-0.18,0.56,1.00,43.242992,-0.040594,1.90,1,427.60
54131,1.52,-4.1,-10.9,78.3,-0.7708,-0.0969,0.0316,0.6287,-0.80,0.31,1.11,43.242992,-0.040594,1.90,1,427.60
54131,1.74,-4.1,-10.9,78.3,-0.7708,-0.0969,0.0316,0.6287,-0.80,0.31,1.11,43.242992,-0.040594,1.90,1,427.60
54131,1.76,-4.1,-10.9,78.3,-0.7708,-0.0969,0.0316,0.6287,-0.80,0.31,1.11,43.242992,-0.040594,1.90,1,427.60
54131,1.76,-4.1,-10.9,78.3,-0.7708,-0.0969,0.0316,0.6287,-0.80,0.31,1.11,43.242992,-0.040594,1.90,1,427.60
54131,1.75,-4.1,-10.9,78.3,-0.7708,-0.0969,0.0316,0.6287,-0.80,0.31,1.11,43.242992,-0.040594,1.90,1,427.60
54144,1.75,-4.0,-12.7,78.1,-0.7710,-0.1086,0.0424,0.6259,-0.34,-0.40,1.11,43.242992,-0.040594,1.79,1,427.60
54144,1.75,-4.0,-12.7,78.1,-0.7710,-0.1086,0.0424,0.6259,-0.34,-0.40,1.11,43.242992,-0.040594,1.79,1,427.60
54144,1.75,-4.0,-12.7,78.1,-0.7710,-0.1086,0.0424,0.6259,-0.34,-0.40,1.11,43.242992,-0.040594,1.79,1,427.60
54144,1.74,-4.0,-12.7,78.1,-0.7710,-0.1086,0.0424,0.6259,-0.34,-0.40,1.11,43.242992,-0.040594,1.79,1,427.60
54144,1.77,-4.0,-12.7,78.1,-0.7710,-0.1086,0.0424,0.6259,-0.34,-0.40,1.11,43.242992,-0.040594,1.79,1,427.60
54157,2.38,-3.8,-16.3,77.9,-0.7691,-0.1323,0.0627,0.6221,-0.40,-0.70,0.76,43.242992,-0.040594,1.79,1,427.60
54157,2.47,-3.8,-16.3,77.9,-0.7691,-0.1323,0.0627,0.6221,-0.40,-0.70,0.76,43.242992,-0.040594,1.79,1,427.60
54157,2.50,-3.8,-16.3,77.9,-0.7691,-0.1323,0.0627,0.6221,-0.40,-0.70,0.76,43.242992,-0.040594,1.79,1,427.60
54157,2.54,-3.8,-16.3,77.9,-0.7691,-0.1323,0.0627,0.6221,-0.40,-0.70,0.76,43.242992,-0.040594,1.79,1,427.60
54157,2.58,-3.8,-16.3,77.9,-0.7691,-0.1323,0.0627,0.6221,-0.40,-0.70,0.76,43.242992,-0.040594,1.79,1,427.60
54170,2.55,-3.8,-18.1,77.9,-0.7671,-0.1447,0.0726,0.6207,-0.60,-0.65,0.73,43.242992,-0.040594,1.79,1,427.60
54170,2.50,-3.8,-18.1,77.9,-0.7671,-0.1447,0.0726,0.6207,-0.60,-0.65,0.73,43.242992,-0.040594,1.79,1,427.60
54170,2.53,-3.8,-18.1,77.9,-0.7671,-0.1447,0.0726,0.6207,-0.60,-0.65,0.73,43.242992,-0.040594,1.79,1,427.60
54170,2.61,-3.8,-18.1,77.9,-0.7671,-0.1447,0.0726,0.6207,-0.60,-0.65,0.73,43.242992,-0.040594,1.79,1,427.60
54170,2.59,-3.8,-18.1,77.9,-0.7671,-0.1447,0.0726,0.6207,-0.60,-0.65,0.73,43.242992,-0.040594,1.79,1,427.60
54182,2.67,-3.9,-20.1,78.0,-0.7644,-0.1577,0.0826,0.6196,-0.27,0.00,0.51,43.242992,-0.040594,1.79,1,427.60
54182,2.69,-3.9,-20.1,78.0,-0.7644,-0.1577,0.0826,0.6196,-0.27,0.00,0.51,43.242992,-0.040594,1.79,1,427.60
54182,2.70,-3.9,-20.1,78.0,-0.7644,-0.1577,0.0826,0.6196,-0.27,0.00,0.51,43.242992,-0.040594,1.79,1,427.60
54182,2.75,-3.9,-20.1,78.0,-0.7644,-0.1577,0.0826,0.6196,-0.27,0.00,0.51,43.242992,-0.040594,1.79,1,427.60
54182,2.84,-3.9,-20.1,78.0,-0.7644,-0.1577,0.0826,0.6196,-0.27,0.00,0.51,43.242992,-0.040594,1.79,1,427.60
54195,2.97,-4.0,-22.0,78.2,-0.7608,-0.1712,0.0927,0.6189,-0.03,0.15,0.22,43.242992,-0.040594,1.68,1,427.60
54195,2.92,-4.0,-22.0,78.2,-0.7608,-0.1712,0.0927,0.6189,-0.03,0.15,0.22,43.242992,-0.040594,1.68,1,427.60
54195,2.96,-4.0,-22.0,78.2,-0.7608,-0.1712,0.0927,0.6189,-0.03,0.15,0.22,43.242992,-0.040594,1.68,1,427.60
54195,2.95,-4.0,-22.0,78.2,-0.7608,-0.1712,0.0927,0.6189,-0.03,0.15,0.22,43.242992,-0.040594,1.68,1,427.60
54195,2.95,-4.0,-22.0,78.2,-0.7608,-0.1712,0.0927,0.6189,-0.03,0.15,0.22,43.242992,-0.040594,1.68,1,427.60
54208,2.94,-4.3,-25.8,78.8,-0.7523,-0.1972,0.1115,0.6185,0.01,-0.61,0.00,43.242992,-0.040594,1.68,1,427.60
54208,2.94,-4.3,-25.8,78.8,-0.7523,-0.1972,0.1115,0.6185,0.01,-0.61,0.00,43.242992,-0.040594,1.68,1,427.60
54208,2.93,-4.3,-25.8,78.8,-0.7523,-0.1972,0.1115,0.6185,0.01,-0.61,0.00,43.242992,-0.040594,1.68,1,427.60
54208,2.92,-4.3,-25.8,78.8,-0.7523,-0.1972,0.1115,0.6185,0.01,-0.61,0.00,43.242992,-0.040594,1.68,1,427.60
54208,2.91,-4.3,-25.8,78.8,-0.7523,-0.1972,0.1115,0.6185,0.01,-0.61,0.00,43.242992,-0.040594,1.68,1,427.60
54221,2.90,-4.5,-27.5,79.0,-0.7482,-0.2088,0.1199,0.6181,-0.01,-1.00,-0.20,43.242992,-0.040594,1.68,1,427.60
54221,2.89,-4.5,-27.5,79.0,-0.7482,-0.2088,0.1199,0.6181,-0.01,-1.00,-0.20,43.242992,-0.040594,1.68,1,427.60
54221,2.89,-4.5,-27.5,79.0,-0.7482,-0.2088,0.1199,0.6181,-0.01,-1.00,-0.20,43.242992,-0.040594,1.68,1,427.60
54221,2.88,-4.5,-27.5,79.0,-0.7482,-0.2088,0.1199,0.6181,-0.01,-1.00,-0.20,43.242992,-0.040594,1.68,1,427.60
54221,2.86,-4.5,-27.5,79.0,-0.7482,-0.2088,0.1199,0.6181,-0.01,-1.00,-0.20,43.242992,-0.040594,1.68,1,427.60
54234,2.85,-4.5,-29.1,79.3,-0.7443,-0.2197,0.1284,0.6173,0.61,-0.37,-0.15,43.242992,-0.040594,1.68,1,427.70
54234,2.85,-4.5,-29.1,79.3,-0.7443,-0.2197,0.1284,0.6173,0.61,-0.37,-0.15,43.242992,-0.040594,1.68,1,427.70
54234,2.84,-4.5,-29.1,79.3,-0.7443,-0.2197,0.1284,0.6173,0.61,-0.37,-0.15,43.242992,-0.040594,1.68,1,427.70
54234,2.84,-4.5,-29.1,79.3,-0.7443,-0.2197,0.1284,0.6173,0.61,-0.37,-0.15,43.242992,-0.040594,1.68,1,427.70
54234,2.83,-4.5,-29.1,79.3,-0.7443,-0.2197,0.1284,0.6173,0.61,-0.37,-0.15,43.242992,-0.040594,1.68,1,427.70
54246,2.83,-4.6,-30.8,79.5,-0.7406,-0.2306,0.1372,0.6160,0.98,-0.28,-0.41,43.242992,-0.040594,1.57,1,427.70
54246,2.82,-4.6,-30.8,79.5,-0.7406,-0.2306,0.1372,0.6160,0.98,-0.28,-0.41,43.242992,-0.040594,1.57,1,427.70
54246,2.81,-4.6,-30.8,79.5,-0.7406,-0.2306,0.1372,0.6160,0.98,-0.28,-0.41,43.242992,-0.040594,1.57,1,427.70
54246,2.81,-4.6,-30.8,79.5,-0.7406,-0.2306,0.1372,0.6160,0.98,-0.28,-0.41,43.242992,-0.040594,1.57,1,427.70
54246,2.80,-4.6,-30.8,79.5,-0.7406,-0.2306,0.1372,0.6160,0.98,-0.28,-0.41,43.242992,-0.040594,1.57,1,427.70
54259,2.79,-4.6,-34.1,79.8,-0.7324,-0.2523,0.1552,0.6129,0.65,-1.22,-0.15,43.242992,-0.040594,1.57,1,427.70
54259,2.79,-4.6,-34.1,79.8,-0.7324,-0.2523,0.1552,0.6129,0.65,-1.22,-0.15,43.242992,-0.040594,1.57,1,427.70
54259,2.78,-4.6,-34.1,79.8,-0.7324,-0.2523,0.1552,0.6129,0.65,-1.22,-0.15,43.242992,-0.040594,1.57,1,427.70
54259,2.78,-4.6,-34.1,79.8,-0.7324,-0.2523,0.1552,0.6129,0.65,-1.22,-0.15,43.242992,-0.040594,1.57,1,427.70
54259,2.77,-4.6,-34.1,79.8,-0.7324,-0.2523,0.1552,0.6129,0.65,-1.22,-0.15,43.242992,-0.040594,1.57,1,427.70
54272,2.77,-4.7,-36.0,80.0,-0.7272,-0.2647,0.1653,0.6112,0.56,-0.22,-0.50,43.242992,-0.040594,1.57,1,427.70
54272,2.77,-4.7,-36.0,80.0,-0.7272,-0.2647,0.1653,0.6112,0.56,-0.22,-0.50,43.242992,-0.040594,1.57,1,427.70
54272,2.76,-4.7,-36.0,80.0,-0.7272,-0.2647,0.1653,0.6112,0.56,-0.22,-0.50,43.242992,-0.040594,1.57,1,427.70
54272,2.76,-4.7,-36.0,80.0,-0.7272,-0.2647,0.1653,0.6112,0.56,-0.22,-0.50,43.242992,-0.040594,1.57,1,427.70
54272,2.76,-4.7,-36.0,80.0,-0.7272,-0.2647,0.1653,0.6112,0.56,-0.22,-0.50,43.242992,-0.040594,1.57,1,427.70
54284,2.76,-4.8,-38.1,80.3,-0.7215,-0.2783,0.1763,0.6088,0.60,0.00,-0.75,43.242992,-0.040594,1.57,1,427.70
54284,2.75,-4.8,-38.1,80.3,-0.7215,-0.2783,0.1763,0.6088,0.60,0.00,-0.75,43.242992,-0.040594,1.57,1,427.70
54284,2.75,-4.8,-38.1,80.3,-0.7215,-0.2783,0.1763,0.6088,0.60,0.00,-0.75,43.242992,-0.040594,1.57,1,427.70
54284,2.75,-4.8,-38.1,80.3,-0.7215,-0.2783,0.1763,0.6088,0.60,0.00,-0.75,43.242992,-0.040594,1.57,1,427.70
54284,2.75,-4.8,-38.1,80.3,-0.7215,-0.2783,0.1763,0.6088,0.60,0.00,-0.75,43.242992,-0.040594,1.57,1,427.70
54297,2.75,-4.8,-40.3,80.5,-0.7157,-0.2918,0.1872,0.6061,0.43,-0.58,-1.04,43.242992,-0.040594,1.46,1,427.70
54297,2.75,-4.8,-40.3,80.5,-0.7157,-0.2918,0.1872,0.6061,0.43,-0.58,-1.04,43.242992,-0.040594,1.46,1,427.70
54297,2.75,-4.8,-40.3,80.5,-0.7157,-0.2918,0.1872,0.6061,0.43,-0.58,-1.04,43.242992,-0.040594,1.46,1,427.70
54297,2.71,-4.8,-40.3,80.5,-0.7157,-0.2918,0.1872,0.6061,0.43,-0.58,-1.04,43.242992,-0.040594,1.46,1,427.70
54297,2.70,-4.8,-40.3,80.5,-0.7157,-0.2918,0.1872,0.6061,0.43,-0.58,-1.04,43.242992,-0.040594,1.46,1,427.70
54310,2.70,-4.9,-44.0,80.7,-0.7053,-0.3153,0.2072,0.6000,0.36,-1.63,-1.02,43.242992,-0.040594,1.46,1,427.70
54310,2.70,-4.9,-44.0,80.7,-0.7053,-0.3153,0.2072,0.6000,0.36,-1.63,-1.02,43.242992,-0.040594,1.46,1,427.70
54310,2.73,-4.9,-44.0,80.7,-0.7053,-0.3153,0.2072,0.6000,0.36,-1.63,-1.02,43.242992,-0.040594,1.46,1,427.70
54310,2.75,-4.9,-44.0,80.7,-0.7053,-0.3153,0.2072,0.6000,0.36,-1.63,-1.02,43.242992,-0.040594,1.46,1,427.70
54310,2.74,-4.9,-44.0,80.7,-0.7053,-0.3153,0.2072,0.6000,0.36,-1.63,-1.02,43.242992,-0.040594,1.46,1,427.70
54323,2.74,-4.8,-45.7,80.7,-0.7009,-0.3253,0.2161,0.5966,0.22,-1.09,-0.81,43.242992,-0.040594,1.46,1,427.70
54323,2.68,-4.8,-45.7,80.7,-0.7009,-0.3253,0.2161,0.5966,0.22,-1.09,-0.81,43.242992,-0.040594,1.46,1,427.70
54323,2.41,-4.8,-45.7,80.7,-0.7009,-0.3253,0.2161,0.5966,0.22,-1.09,-0.81,43.242992,-0.040594,1.46,1,427.70
54323,2.39,-4.8,-45.7,80.7,-0.7009,-0.3253,0.2161,0.5966,0.22,-1.09,-0.81,43.242992,-0.040594,1.46,1,427.70
54323,2.40,-4.8,-45.7,80.7,-0.7009,-0.3253,0.2161,0.5966,0.22,-1.09,-0.81,43.242992,-0.040594,1.46,1,427.70
54335,2.41,-4.7,-47.3,80.7,-0.6970,-0.3344,0.2244,0.5931,0.20,-0.50,-0.81,43.242992,-0.040594,1.46,1,428.00
54335,2.41,-4.7,-47.3,80.7,-0.6970,-0.3344,0.2244,0.5931,0.20,-0.50,-0.81,43.242992,-0.040594,1.46,1,428.00
54335,2.41,-4.7,-47.3,80.7,-0.6970,-0.3344,0.2244,0.5931,0.20,-0.50,-0.81,43.242992,-0.040594,1.46,1,428.00
54335,2.41,-4.7,-47.3,80.7,-0.6970,-0.3344,0.2244,0.5931,0.20,-0.50,-0.81,43.242992,-0.040594,1.46,1,428.00
54335,2.41,-4.7,-47.3,80.7,-0.6970,-0.3344,0.2244,0.5931,0.20,-0.50,-0.81,43.242992,-0.040594,1.46,1,428.00
54348,2.41,-4.7,-48.6,80.7,-0.6932,-0.3430,0.2319,0.5898,-0.18,-1.12,-0.63,43.242992,-0.040594,1.35,1,428.00
54348,2.41,-4.7,-48.6,80.7,-0.6932,-0.3430,0.2319,0.5898,-0.18,-1.12,-0.63,43.242992,-0.040594,1.35,1,428.00
54348,2.41,-4.7,-48.6,80.7,-0.6932,-0.3430,0.2319,0.5898,-0.18,-1.12,-0.63,43.242992,-0.040594,1.35,1,428.00
54348,2.41,-4.7,-48.6,80.7,-0.6932,-0.3430,0.2319,0.5898,-0.18,-1.12,-0.63,43.242992,-0.040594,1.35,1,428.00
54348,2.41,-4.7,-48.6,80.7,-0.6932,-0.3430,0.2319,0.5898,-0.18,-1.12,-0.63,43.242992,-0.040594,1.35,1,428.00
54361,2.41,-4.6,-51.4,80.8,-0.6853,-0.3592,0.2460,0.5836,0.09,-1.42,-1.00,43.242992,-0.040594,1.35,1,428.00
54361,2.41,-4.6,-51.4,80.8,-0.6853,-0.3592,0.2460,0.5836,0.09,-1.42,-1.00,43.242992,-0.040594,1.35,1,428.00
54361,2.41,-4.6,-51.4,80.8,-0.6853,-0.3592,0.2460,0.5836,0.09,-1.42,-1.00,43.242992,-0.040594,1.35,1,428.00
54361,2.41,-4.6,-51.4,80.8,-0.6853,-0.3592,0.2460,0.5836,0.09,-1.42,-1.00,43.242992,-0.040594,1.35,1,428.00
54361,2.42,-4.6,-51.4,80.8,-0.6853,-0.3592,0.2460,0.5836,0.09,-1.42,-1.00,43.242992,-0.040594,1.35,1,428.00
54374,2.42,-4.6,-52.8,80.8,-0.6808,-0.3673,0.2533,0.5807,0.33,-1.65,-0.98,43.242992,-0.040595,1.35,1,428.00
54374,2.42,-4.6,-52.8,80.8,-0.6808,-0.3673,0.2533,0.5807,0.33,-1.65,-0.98,43.242992,-0.040595,1.35,1,428.00
54374,2.42,-4.6,-52.8,80.8,-0.6808,-0.3673,0.2533,0.5807,0.33,-1.65,-0.98,43.242992,-0.040595,1.35,1,428.00
54374,2.42,-4.6,-52.8,80.8,-0.6808,-0.3673,0.2533,0.5807,0.33,-1.65,-0.98,43.242992,-0.040595,1.35,1,428.00
54374,2.43,-4.6,-52.8,80.8,-0.6808,-0.3673,0.2533,0.5807,0.33,-1.65,-0.98,43.242992,-0.040595,1.35,1,428.00
54386,2.43,-4.6,-54.3,81.0,-0.6760,-0.3758,0.2611,0.5774,0.07,-0.60,-1.39,43.242992,-0.040595,1.35,1,428.00
54386,2.43,-4.6,-54.3,81.0,-0.6760,-0.3758,0.2611,0.5774,0.07,-0.60,-1.39,43.242992,-0.040595,1.35,1,428.00
54386,2.44,-4.6,-54.3,81.0,-0.6760,-0.3758,0.2611,0.5774,0.07,-0.60,-1.39,43.242992,-0.040595,1.35,1,428.00
54386,2.44,-4.6,-54.3,81.0,-0.6760,-0.3758,0.2611,0.5774,0.07,-0.60,-1.39,43.242992,-0.040595,1.35,1,428.00
54386,2.44,-4.6,-54.3,81.0,-0.6760,-0.3758,0.2611,0.5774,0.07,-0.60,-1.39,43.242992,-0.040595,1.35,1,428.00
54399,2.44,-4.5,-55.7,81.0,-0.6715,-0.3840,0.2691,0.5736,0.00,-1.55,-1.63,43.242992,-0.040595,1.25,1,428.00
54399,2.45,-4.5,-55.7,81.0,-0.6715,-0.3840,0.2691,0.5736,0.00,-1.55,-1.63,43.242992,-0.040595,1.25,1,428.00
54399,2.46,-4.5,-55.7,81.0,-0.6715,-0.3840,0.2691,0.5736,0.00,-1.55,-1.63,43.242992,-0.040595,1.25,1,428.00
54399,2.46,-4.5,-55.7,81.0,-0.6715,-0.3840,0.2691,0.5736,0.00,-1.55,-1.63,43.242992,-0.040595,1.25,1,428.00
54399,2.50,-4.5,-55.7,81.0,-0.6715,-0.3840,0.2691,0.5736,0.00,-1.55,-1.63,43.242992,-0.040595,1.25,1,428.00
54412,2.58,-3.9,-58.5,80.7,-0.6638,-0.3978,0.2861,0.5648,-0.50,-1.61,-1.98,43.242992,-0.040595,1.25,1,428.00
54412,2.82,-3.9,-58.5,80.7,-0.6638,-0.3978,0.2861,0.5648,-0.50,-1.61,-1.98,43.242992,-0.040595,1.25,1,428.00
54412,2.84,-3.9,-58.5,80.7,-0.6638,-0.3978,0.2861,0.5648,-0.50,-1.61,-1.98,43.242992,-0.040595,1.25,1,428.00
54412,2.84,-3.9,-58.5,80.7,-0.6638,-0.3978,0.2861,0.5648,-0.50,-1.61,-1.98,43.242992,-0.040595,1.25,1,428.00
54412,2.85,-3.9,-58.5,80.7,-0.6638,-0.3978,0.2861,0.5648,-0.50,-1.61,-1.98,43.242992,-0.040595,1.25,1,428.00
54425,2.86,-3.5,-60.2,80.6,-0.6591,-0.4053,0.2970,0.5593,-0.00,-0.41,-1.30,43.242992,-0.040595,1.25,1,428.00
54425,2.86,-3.5,-60.2,80.6,-0.6591,-0.4053,0.2970,0.5593,-0.00,-0.41,-1.30,43.242992,-0.040595,1.25,1,428.00
54425,2.88,-3.5,-60.2,80.6,-0.6591,-0.4053,0.2970,0.5593,-0.00,-0.41,-1.30,43.242992,-0.040595,1.25,1,428.00
54425,2.89,-3.5,-60.2,80.6,-0.6591,-0.4053,0.2970,0.5593,-0.00,-0.41,-1.30,43.242992,-0.040595,1.25,1,428.00
54425,2.90,-3.5,-60.2,80.6,-0.6591,-0.4053,0.2970,0.5593,-0.00,-0.41,-1.30,43.242992,-0.040595,1.25,1,428.00
54438,2.90,-3.1,-62.0,80.5,-0.6536,-0.4133,0.3084,0.5538,0.28,-0.45,-0.58,43.242992,-0.040595,1.25,1,428.10
54438,2.91,-3.1,-62.0,80.5,-0.6536,-0.4133,0.3084,0.5538,0.28,-0.45,-0.58,43.242992,-0.040595,1.25,1,428.10
54438,2.92,-3.1,-62.0,80.5,-0.6536,-0.4133,0.3084,0.5538,0.28,-0.45,-0.58,43.242992,-0.040595,1.25,1,428.10
54438,2.93,-3.1,-62.0,80.5,-0.6536,-0.4133,0.3084,0.5538,0.28,-0.45,-0.58,43.242992,-0.040595,1.25,1,428.10
54438,2.94,-3.1,-62.0,80.5,-0.6536,-0.4133,0.3084,0.5538,0.28,-0.45,-0.58,43.242992,-0.040595,1.25,1,428.10
54450,2.94,-2.8,-63.7,80.5,-0.6476,-0.4212,0.3190,0.5489,0.13,-0.50,-0.12,43.242992,-0.040595,1.14,1,428.10
54450,2.95,-2.8,-63.7,80.5,-0.6476,-0.4212,0.3190,0.5489,0.13,-0.50,-0.12,43.242992,-0.040595,1.14,1,428.10
54450,2.96,-2.8,-63.7,80.5,-0.6476,-0.4212,0.3190,0.5489,0.13,-0.50,-0.12,43.242992,-0.040595,1.14,1,428.10
54450,2.97,-2.8,-63.7,80.5,-0.6476,-0.4212,0.3190,0.5489,0.13,-0.50,-0.12,43.242992,-0.040595,1.14,1,428.10
54450,2.97,-2.8,-63.7,80.5,-0.6476,-0.4212,0.3190,0.5489,0.13,-0.50,-0.12,43.242992,-0.040595,1.14,1,428.10
54463,2.98,-2.3,-67.0,80.6,-0.6356,-0.4367,0.3382,0.5393,-0.11,-0.61,-0.10,43.242992,-0.040595,1.14,1,428.10
54463,3.00,-2.3,-67.0,80.6,-0.6356,-0.4367,0.3382,0.5393,-0.11,-0.61,-0.10,43.242992,-0.040595,1.14,1,428.10
54463,3.00,-2.3,-67.0,80.6,-0.6356,-0.4367,0.3382,0.5393,-0.11,-0.61,-0.10,43.242992,-0.040595,1.14,1,428.10
54463,3.00,-2.3,-67.0,80.6,-0.6356,-0.4367,0.3382,0.5393,-0.11,-0.61,-0.10,43.242992,-0.040595,1.14,1,428.10
54463,3.01,-2.3,-67.0,80.6,-0.6356,-0.4367,0.3382,0.5393,-0.11,-0.61,-0.10,43.242992,-0.040595,1.14,1,428.10
54476,3.01,-2.1,-68.5,80.6,-0.6300,-0.4435,0.3468,0.5349,-0.11,-0.57,-0.25,43.242992,-0.040595,1.14,1,428.10
54476,3.02,-2.1,-68.5,80.6,-0.6300,-0.4435,0.3468,0.5349,-0.11,-0.57,-0.25,43.242992,-0.040595,1.14,1,428.10
54476,3.03,-2.1,-68.5,80.6,-0.6300,-0.4435,0.3468,0.5349,-0.11,-0.57,-0.25,43.242992,-0.040595,1.14,1,428.10
54476,3.04,-2.1,-68.5,80.6,-0.6300,-0.4435,0.3468,0.5349,-0.11,-0.57,-0.25,43.242992,-0.040595,1.14,1,428.10
54476,3.05,-2.1,-68.5,80.6,-0.6300,-0.4435,0.3468,0.5349,-0.11,-0.57,-0.25,43.242992,-0.040595,1.14,1,428.10
54488,3.06,-1.9,-69.9,80.6,-0.6242,-0.4502,0.3552,0.5304,-0.15,-1.19,-0.97,43.242992,-0.040595,1.14,1,428.10
54488,3.07,-1.9,-69.9,80.6,-0.6242,-0.4502,0.3552,0.5304,-0.15,-1.19,-0.97,43.242992,-0.040595,1.14,1,428.10
54488,3.07,-1.9,-69.9,80.6,-0.6242,-0.4502,0.3552,0.5304,-0.15,-1.19,-0.97,43.242992,-0.040595,1.14,1,428.10
54488,3.08,-1.9,-69.9,80.6,-0.6242,-0.4502,0.3552,0.5304,-0.15,-1.19,-0.97,43.242992,-0.040595,1.14,1,428.10
54488,3.08,-1.9,-69.9,80.6,-0.6242,-0.4502,0.3552,0.5304,-0.15,-1.19,-0.97,43.242992,-0.040595,1.14,1,428.10
54501,3.09,-1.6,-71.3,80.6,-0.6188,-0.4564,0.3637,0.5258,0.17,-1.20,-0.83,43.242992,-0.040595,1.04,1,428.10
54501,3.10,-1.6,-71.3,80.6,-0.6188,-0.4564,0.3637,0.5258,0.17,-1.20,-0.83,43.242992,-0.040595,1.04,1,428.10
54501,3.11,-1.6,-71.3,80.6,-0.6188,-0.4564,0.3637,0.5258,0.17,-1.20,-0.83,43.242992,-0.040595,1.04,1,428.10
54501,3.13,-1.6,-71.3,80.6,-0.6188,-0.4564,0.3637,0.5258,0.17,-1.20,-0.83,43.242992,-0.040595,1.04,1,428.10
54501,3.13,-1.6,-71.3,80.6,-0.6188,-0.4564,0.3637,0.5258,0.17,-1.20,-0.83,43.242992,-0.040595,1.04,1,428.10
54514,3.14,-1.1,-74.0,80.5,-0.6088,-0.4669,0.3799,0.5165,0.05,-1.50,-0.70,43.242992,-0.040595,1.04,1,428.10
54514,3.14,-1.1,-74.0,80.5,-0.6088,-0.4669,0.3799,0.5165,0.05,-1.50,-0.70,43.242992,-0.040595,1.04,1,428.10
54514,3.15,-1.1,-74.0,80.5,-0.6088,-0.4669,0.3799,0.5165,0.05,-1.50,-0.70,43.242992,-0.040595,1.04,1,428.10
54514,3.16,-1.1,-74.0,80.5,-0.6088,-0.4669,0.3799,0.5165,0.05,-1.50,-0.70,43.242992,-0.040595,1.04,1,428.10
54514,3.17,-1.1,-74.0,80.5,-0.6088,-0.4669,0.3799,0.5165,0.05,-1.50,-0.70,43.242992,-0.040595,1.04,1,428.10
54527,3.18,-0.7,-75.1,80.4,-0.6050,-0.4711,0.3874,0.5117,0.02,-1.82,-0.76,43.242992,-0.040595,1.04,1,428.10
54527,3.20,-0.7,-75.1,80.4,-0.6050,-0.4711,0.3874,0.5117,0.02,-1.82,-0.76,43.242992,-0.040595,1.04,1,428.10
54527,3.21,-0.7,-75.1,80.4,-0.6050,-0.4711,0.3874,0.5117,0.02,-1.82,-0.76,43.242992,-0.040595,1.04,1,428.10
54527,3.22,-0.7,-75.1,80.4,-0.6050,-0.4711,0.3874,0.5117,0.02,-1.82,-0.76,43.242992,-0.040595,1.04,1,428.10
54527,3.23,-0.7,-75.1,80.4,-0.6050,-0.4711,0.3874,0.5117,0.02,-1.82,-0.76,43.242992,-0.040595,1.04,1,428.10
54540,3.25,-0.3,-76.3,80.2,-0.6006,-0.4757,0.3953,0.5065,-0.41,-2.38,-1.02,43.242992,-0.040595,1.04,1,428.10
54540,3.26,-0.3,-76.3,80.2,-0.6006,-0.4757,0.3953,0.5065,-0.41,-2.38,-1.02,43.242992,-0.040595,1.04,1,428.10
54540,3.27,-0.3,-76.3,80.2,-0.6006,-0.4757,0.3953,0.5065,-0.41,-2.38,-1.02,43.242992,-0.040595,1.04,1,428.10
54540,3.29,-0.3,-76.3,80.2,-0.6006,-0.4757,0.3953,0.5065,-0.41,-2.38,-1.02,43.242992,-0.040595,1.04,1,428.10
54540,3.30,-0.3,-76.3,80.2,-0.6006,-0.4757,0.3953,0.5065,-0.41,-2.38,-1.02,43.242992,-0.040595,1.04,1,428.10
54552,3.32,0.0,-77.8,80.1,-0.5952,-0.4807,0.4046,0.5009,0.07,-1.30,-0.56,43.242992,-0.040595,0.97,1,428.10
54552,3.34,0.0,-77.8,80.1,-0.5952,-0.4807,0.4046,0.5009,0.07,-1.30,-0.56,43.242992,-0.040595,0.97,1,428.10
54552,3.36,0.0,-77.8,80.1,-0.5952,-0.4807,0.4046,0.5009,0.07,-1.30,-0.56,43.242992,-0.040595,0.97,1,428.10
54552,3.39,0.0,-77.8,80.1,-0.5952,-0.4807,0.4046,0.5009,0.07,-1.30,-0.56,43.242992,-0.040595,0.97,1,428.10
54552,3.40,0.0,-77.8,80.1,-0.5952,-0.4807,0.4046,0.5009,0.07,-1.30,-0.56,43.242992,-0.040595,0.97,1,428.10
54565,3.42,0.8,-81.0,79.9,-0.5820,-0.4917,0.4251,0.4883,0.22,-0.45,-0.20,43.242992,-0.040595,0.97,1,428.10
54565,3.43,0.8,-81.0,79.9,-0.5820,-0.4917,0.4251,0.4883,0.22,-0.45,-0.20,43.242992,-0.040595,0.97,1,428.10
54565,3.41,0.8,-81.0,79.9,-0.5820,-0.4917,0.4251,0.4883,0.22,-0.45,-0.20,43.242992,-0.040595,0.97,1,428.10
54565,3.36,0.8,-81.0,79.9,-0.5820,-0.4917,0.4251,0.4883,0.22,-0.45,-0.20,43.242992,-0.040595,0.97,1,428.10
54565,3.33,0.8,-81.0,79.9,-0.5820,-0.4917,0.4251,0.4883,0.22,-0.45,-0.20,43.242992,-0.040595,0.97,1,428.10
54578,3.31,1.3,-82.6,79.7,-0.5761,-0.4966,0.4356,0.4813,-0.23,0.90,0.27,43.242992,-0.040595,0.97,1,428.10
54578,3.28,1.3,-82.6,79.7,-0.5761,-0.4966,0.4356,0.4813,-0.23,0.90,0.27,43.242992,-0.040595,0.97,1,428.10
54578,3.26,1.3,-82.6,79.7,-0.5761,-0.4966,0.4356,0.4813,-0.23,0.90,0.27,43.242992,-0.040595,0.97,1,428.10
54578,3.25,1.3,-82.6,79.7,-0.5761,-0.4966,0.4356,0.4813,-0.23,0.90,0.27,43.242992,-0.040595,0.97,1,428.10
54578,3.22,1.3,-82.6,79.7,-0.5761,-0.4966,0.4356,0.4813,-0.23,0.90,0.27,43.242992,-0.040595,0.97,1,428.10
54590,3.21,1.9,-84.0,79.4,-0.5668,-0.5033,0.4538,0.4682,-0.58,0.68,0.44,43.242992,-0.040595,0.97,1,428.10
54590,3.18,1.9,-84.0,79.4,-0.5668,-0.5033,0.4538,0.4682,-0.58,0.68,0.44,43.242992,-0.040595,0.97,1,428.10
54590,3.17,1.9,-84.0,79.4,-0.5668,-0.5033,0.4538,0.4682,-0.58,0.68,0.44,43.242992,-0.040595,0.97,1,428.10
54590,3.15,1.9,-84.0,79.4,-0.5668,-0.5033,0.4538,0.4682,-0.58,0.68,0.44,43.242992,-0.040595,0.97,1,428.10
54590,3.14,1.9,-84.0,79.4,-0.5668,-0.5033,0.4538,0.4682,-0.58,0.68,0.44,43.242992,-0.040595,0.97,1,428.10
54603,3.11,2.4,-85.3,79.0,-0.5629,-0.5059,0.4612,0.4628,-0.45,-0.55,-0.61,43.242992,-0.040595,0.94,1,428.10
54603,3.10,2.4,-85.3,79.0,-0.5629,-0.5059,0.4612,0.4628,-0.45,-0.55,-0.61,43.242992,-0.040595,0.94,1,428.10
54603,3.09,2.4,-85.3,79.0,-0.5629,-0.5059,0.4612,0.4628,-0.45,-0.55,-0.61,43.242992,-0.040595,0.94,1,428.10
54603,3.07,2.4,-85.3,79.0,-0.5629,-0.5059,0.4612,0.4628,-0.45,-0.55,-0.61,43.242992,-0.040595,0.94,1,428.10
54603,3.06,2.4,-85.3,79.0,-0.5629,-0.5059,0.4612,0.4628,-0.45,-0.55,-0.61,43.242992,-0.040595,0.94,1,428.10
54616,3.04,3.1,-87.3,78.6,-0.5588,-0.5089,0.4675,0.4583,-0.19,-0.91,-0.70,43.242992,-0.040595,0.94,1,428.10
54616,3.03,3.1,-87.3,78.6,-0.5588,-0.5089,0.4675,0.4583,-0.19,-0.91,-0.70,43.242992,-0.040595,0.94,1,428.10
54616,3.02,3.1,-87.3,78.6,-0.5588,-0.5089,0.4675,0.4583,-0.19,-0.91,-0.70,43.242992,-0.040595,0.94,1,428.10
54616,3.00,3.1,-87.3,78.6,-0.5588,-0.5089,0.4675,0.4583,-0.19,-0.91,-0.70,43.242992,-0.040595,0.94,1,428.10
54616,3.00,3.1,-87.3,78.6,-0.5588,-0.5089,0.4675,0.4583,-0.19,-0.91,-0.70,43.242992,-0.040595,0.94,1,428.10
54629,2.98,3.3,-88.3,78.5,-0.5546,-0.5122,0.4730,0.4541,-0.19,-1.35,-0.50,43.242992,-0.040595,0.94,1,428.20
54629,2.96,3.3,-88.3,78.5,-0.5546,-0.5122,0.4730,0.4541,-0.19,-1.35,-0.50,43.242992,-0.040595,0.94,1,428.20
54629,2.94,3.3,-88.3,78.5,-0.5546,-0.5122,0.4730,0.4541,-0.19,-1.35,-0.50,43.242992,-0.040595,0.94,1,428.20
54629,2.93,3.3,-88.3,78.5,-0.5546,-0.5122,0.4730,0.4541,-0.19,-1.35,-0.50,43.242992,-0.040595,0.94,1,428.20
54629,2.91,3.3,-88.3,78.5,-0.5546,-0.5122,0.4730,0.4541,-0.19,-1.35,-0.50,43.242992,-0.040595,0.94,1,428.20
54642,2.89,3.3,-90.5,78.8,-0.5436,-0.5214,0.4824,0.4469,0.11,-0.11,-1.02,43.242992,-0.040595,0.94,1,428.20
54642,2.88,3.3,-90.5,78.8,-0.5436,-0.5214,0.4824,0.4469,0.11,-0.11,-1.02,43.242992,-0.040595,0.94,1,428.20
54642,2.84,3.3,-90.5,78.8,-0.5436,-0.5214,0.4824,0.4469,0.11,-0.11,-1.02,43.242992,-0.040595,0.94,1,428.20
54642,2.83,3.3,-90.5,78.8,-0.5436,-0.5214,0.4824,0.4469,0.11,-0.11,-1.02,43.242992,-0.040595,0.94,1,428.20
54642,2.81,3.3,-90.5,78.8,-0.5436,-0.5214,0.4824,0.4469,0.11,-0.11,-1.02,43.242992,-0.040595,0.94,1,428.20
54654,2.80,3.1,-91.6,79.0,-0.5371,-0.5270,0.4866,0.4437,0.03,-0.01,-1.00,43.242992,-0.040595,0.90,1,428.20
54654,2.78,3.1,-91.6,79.0,-0.5371,-0.5270,0.4866,0.4437,0.03,-0.01,-1.00,43.242992,-0.040595,0.90,1,428.20
54654,2.77,3.1,-91.6,79.0,-0.5371,-0.5270,0.4866,0.4437,0.03,-0.01,-1.00,43.242992,-0.040595,0.90,1,428.20
54654,2.75,3.1,-91.6,79.0,-0.5371,-0.5270,0.4866,0.4437,0.03,-0.01,-1.00,43.242992,-0.040595,0.90,1,428.20
54654,2.75,3.1,-91.6,79.0,-0.5371,-0.5270,0.4866,0.4437,0.03,-0.01,-1.00,43.242992,-0.040595,0.90,1,428.20
54667,2.74,2.9,-92.8,79.3,-0.5303,-0.5326,0.4911,0.4401,-0.15,0.05,-0.75,43.242992,-0.040595,0.90,1,428.20
54667,2.73,2.9,-92.8,79.3,-0.5303,-0.5326,0.4911,0.4401,-0.15,0.05,-0.75,43.242992,-0.040595,0.90,1,428.20
54667,2.72,2.9,-92.8,79.3,-0.5303,-0.5326,0.4911,0.4401,-0.15,0.05,-0.75,43.242992,-0.040595,0.90,1,428.20
54667,2.71,2.9,-92.8,79.3,-0.5303,-0.5326,0.4911,0.4401,-0.15,0.05,-0.75,43.242992,-0.040595,0.90,1,428.20
54667,2.70,2.9,-92.8,79.3,-0.5303,-0.5326,0.4911,0.4401,-0.15,0.05,-0.75,43.242992,-0.040595,0.90,1,428.20
54680,2.70,2.8,-93.9,79.5,-0.5239,-0.5377,0.4956,0.4365,0.03,0.11,-0.40,43.242992,-0.040595,0.90,1,428.20
54680,2.69,2.8,-93.9,79.5,-0.5239,-0.5377,0.4956,0.4365,0.03,0.11,-0.40,43.242992,-0.040595,0.90,1,428.20
54680,2.68,2.8,-93.9,79.5,-0.5239,-0.5377,0.4956,0.4365,0.03,0.11,-0.40,43.242992,-0.040595,0.90,1,428.20
54680,2.67,2.8,-93.9,79.5,-0.5239,-0.5377,0.4956,0.4365,0.03,0.11,-0.40,43.242992,-0.040595,0.90,1,428.20
54680,2.67,2.8,-93.9,79.5,-0.5239,-0.5377,0.4956,0.4365,0.03,0.11,-0.40,43.242992,-0.040595,0.90,1,428.20
54692,2.66,2.6,-95.7,79.8,-0.5138,-0.5451,0.5033,0.4306,0.57,0.27,-0.56,43.242992,-0.040595,0.90,1,428.20
54692,2.66,2.6,-95.7,79.8,-0.5138,-0.5451,0.5033,0.4306,0.57,0.27,-0.56,43.242992,-0.040595,0.90,1,428.20
54692,2.65,2.6,-95.7,79.8,-0.5138,-0.5451,0.5033,0.4306,0.57,0.27,-0.56,43.242992,-0.040595,0.90,1,428.20
54692,2.65,2.6,-95.7,79.8,-0.5138,-0.5451,0.5033,0.4306,0.57,0.27,-0.56,43.242992,-0.040595,0.90,1,428.20
54692,2.64,2.6,-95.7,79.8,-0.5138,-0.5451,0.5033,0.4306,0.57,0.27,-0.56,43.242992,-0.040595,0.90,1,428.20
54705,2.63,2.6,-96.4,79.9,-0.5104,-0.5479,0.5057,0.4282,0.50,-0.05,-0.91,43.242992,-0.040595,0.87,1,428.20
54705,2.63,2.6,-96.4,79.9,-0.5104,-0.5479,0.5057,0.4282,0.50,-0.05,-0.91,43.242992,-0.040595,0.87,1,428.20
54705,2.61,2.6,-96.4,79.9,-0.5104,-0.5479,0.5057,0.4282,0.50,-0.05,-0.91,43.242992,-0.040595,0.87,1,428.20
54705,2.61,2.6,-96.4,79.9,-0.5104,-0.5479,0.5057,0.4282,0.50,-0.05,-0.91,43.242992,-0.040595,0.87,1,428.20
54705,2.61,2.6,-96.4,79.9,-0.5104,-0.5479,0.5057,0.4282,0.50,-0.05,-0.91,43.242992,-0.040595,0.87,1,428.20
54718,2.60,2.6,-97.6,79.9,-0.5046,-0.5536,0.5097,0.4230,0.34,0.19,-0.81,43.242992,-0.040595,0.87,1,428.20
54718,2.59,2.6,-97.6,79.9,-0.5046,-0.5536,0.5097,0.4230,0.34,0.19,-0.81,43.242992,-0.040595,0.87,1,428.20
54718,2.59,2.6,-97.6,79.9,-0.5046,-0.5536,0.5097,0.4230,0.34,0.19,-0.81,43.242992,-0.040595,0.87,1,428.20
54718,2.58,2.6,-97.6,79.9,-0.5046,-0.5536,0.5097,0.4230,0.34,0.19,-0.81,43.242992,-0.040595,0.87,1,428.20
54718,2.58,2.6,-97.6,79.9,-0.5046,-0.5536,0.5097,0.4230,0.34,0.19,-0.81,43.242992,-0.040595,0.87,1,428.20
54731,2.58,2.5,-98.1,79.8,-0.5022,-0.5560,0.5112,0.4208,0.20,0.37,-0.49,43.242992,-0.040595,0.87,1,428.20
54731,2.58,2.5,-98.1,79.8,-0.5022,-0.5560,0.5112,0.4208,0.20,0.37,-0.49,43.242992,-0.040595,0.87,1,428.20
54731,2.57,2.5,-98.1,79.8,-0.5022,-0.5560,0.5112,0.4208,0.20,0.37,-0.49,43.242992,-0.040595,0.87,1,428.20
54731,2.57,2.5,-98.1,79.8,-0.5022,-0.5560,0.5112,0.4208,0.20,0.37,-0.49,43.242992,-0.040595,0.87,1,428.20
54731,2.57,2.5,-98.1,79.8,-0.5022,-0.5560,0.5112,0.4208,0.20,0.37,-0.49,43.242992,-0.040595,0.87,1,428.20
54743,2.57,2.5,-98.4,79.8,-0.5006,-0.5577,0.5122,0.4193,-0.05,0.30,-0.27,43.242992,-0.040595,0.87,1,428.20
54743,2.57,2.5,-98.4,79.8,-0.5006,-0.5577,0.5122,0.4193,-0.05,0.30,-0.27,43.242992,-0.040595,0.87,1,428.20
54743,2.57,2.5,-98.4,79.8,-0.5006,-0.5577,0.5122,0.4193,-0.05,0.30,-0.27,43.242992,-0.040595,0.87,1,428.20
54743,2.57,2.5,-98.4,79.8,-0.5006,-0.5577,0.5122,0.4193,-0.05,0.30,-0.27,43.242992,-0.040595,0.87,1,428.20
54743,2.57,2.5,-98.4,79.8,-0.5006,-0.5577,0.5122,0.4193,-0.05,0.30,-0.27,43.242992,-0.040595,0.87,1,428.20
54756,2.57,2.5,-98.5,79.8,-0.5000,-0.5586,0.5125,0.4186,0.02,0.28,-0.46,43.242992,-0.040595,0.83,1,428.20
54756,2.57,2.5,-98.5,79.8,-0.5000,-0.5586,0.5125,0.4186,0.02,0.28,-0.46,43.242992,-0.040595,0.83,1,428.20
54756,2.57,2.5,-98.5,79.8,-0.5000,-0.5586,0.5125,0.4186,0.02,0.28,-0.46,43.242992,-0.040595,0.83,1,428.20
54756,2.57,2.5,-98.5,79.8,-0.5000,-0.5586,0.5125,0.4186,0.02,0.28,-0.46,43.242992,-0.040595,0.83,1,428.20
54756,2.57,2.5,-98.5,79.8,-0.5000,-0.5586,0.5125,0.4186,0.02,0.28,-0.46,43.242992,-0.040595,0.83,1,428.20
54769,2.57,2.5,-98.5,79.8,-0.5001,-0.5589,0.5122,0.4183,-0.34,-1.07,-0.45,43.242992,-0.040595,0.83,1,428.20
54769,2.57,2.5,-98.5,79.8,-0.5001,-0.5589,0.5122,0.4183,-0.34,-1.07,-0.45,43.242992,-0.040595,0.83,1,428.20
54769,2.57,2.5,-98.5,79.8,-0.5001,-0.5589,0.5122,0.4183,-0.34,-1.07,-0.45,43.242992,-0.040595,0.83,1,428.20
54769,2.57,2.5,-98.5,79.8,-0.5001,-0.5589,0.5122,0.4183,-0.34,-1.07,-0.45,43.242992,-0.040595,0.83,1,428.20
54769,2.56,2.5,-98.5,79.8,-0.5001,-0.5589,0.5122,0.4183,-0.34,-1.07,-0.45,43.242992,-0.040595,0.83,1,428.20
54782,2.57,2.6,-98.6,79.7,-0.4998,-0.5590,0.5129,0.4177,-0.63,-0.98,-0.25,43.242992,-0.040595,0.83,1,428.20
54782,2.56,2.6,-98.6,79.7,-0.4998,-0.5590,0.5129,0.4177,-0.63,-0.98,-0.25,43.242992,-0.040595,0.83,1,428.20
54782,2.56,2.6,-98.6,79.7,-0.4998,-0.5590,0.5129,0.4177,-0.63,-0.98,-0.25,43.242992,-0.040595,0.83,1,428.20
54782,2.56,2.6,-98.6,79.7,-0.4998,-0.5590,0.5129,0.4177,-0.63,-0.98,-0.25,43.242992,-0.040595,0.83,1,428.20
54782,2.56,2.6,-98.6,79.7,-0.4998,-0.5590,0.5129,0.4177,-0.63,-0.98,-0.25,43.242992,-0.040595,0.83,1,428.20
54794,2.56,2.6,-98.8,79.7,-0.4991,-0.5589,0.5142,0.4171,-0.55,-0.47,-0.25,43.242992,-0.040595,0.83,1,428.20
54794,2.56,2.6,-98.8,79.7,-0.4991,-0.5589,0.5142,0.4171,-0.55,-0.47,-0.25,43.242992,-0.040595,0.83,1,428.20
54794,2.56,2.6,-98.8,79.7,-0.4991,-0.5589,0.5142,0.4171,-0.55,-0.47,-0.25,43.242992,-0.040595,0.83,1,428.20
54794,2.57,2.6,-98.8,79.7,-0.4991,-0.5589,0.5142,0.4171,-0.55,-0.47,-0.25,43.242992,-0.040595,0.83,1,428.20
54794,2.57,2.6,-98.8,79.7,-0.4991,-0.5589,0.5142,0.4171,-0.55,-0.47,-0.25,43.242992,-0.040595,0.83,1,428.20
54807,2.57,2.8,-98.7,79.8,-0.4992,-0.5565,0.5162,0.4176,0.75,0.49,-0.22,43.242992,-0.040595,0.78,1,428.29
54807,2.57,2.8,-98.7,79.8,-0.4992,-0.5565,0.5162,0.4176,0.75,0.49,-0.22,43.242992,-0.040595,0.78,1,428.29
54807,2.58,2.8,-98.7,79.8,-0.4992,-0.5565,0.5162,0.4176,0.75,0.49,-0.22,43.242992,-0.040595,0.78,1,428.29
54807,2.58,2.8,-98.7,79.8,-0.4992,-0.5565,0.5162,0.4176,0.75,0.49,-0.22,43.242992,-0.040595,0.78,1,428.29
54807,2.58,2.8,-98.7,79.8,-0.4992,-0.5565,0.5162,0.4176,0.75,0.49,-0.22,43.242992,-0.040595,0.78,1,428.29
54820,2.59,3.0,-98.4,79.7,-0.5010,-0.5540,0.5164,0.4186,0.58,0.46,-0.51,43.242992,-0.040595,0.78,1,428.29
54820,2.59,3.0,-98.4,79.7,-0.5010,-0.5540,0.5164,0.4186,0.58,0.46,-0.51,43.242992,-0.040595,0.78,1,428.29
54820,2.60,3.0,-98.4,79.7,-0.5010,-0.5540,0.5164,0.4186,0.58,0.46,-0.51,43.242992,-0.040595,0.78,1,428.29
54820,2.61,3.0,-98.4,79.7,-0.5010,-0.5540,0.5164,0.4186,0.58,0.46,-0.51,43.242992,-0.040595,0.78,1,428.29
54820,2.61,3.0,-98.4,79.7,-0.5010,-0.5540,0.5164,0.4186,0.58,0.46,-0.51,43.242992,-0.040595,0.78,1,428.29
54833,2.61,3.2,-98.0,79.5,-0.5038,-0.5509,0.5160,0.4198,0.55,0.41,-0.52,43.242992,-0.040595,0.78,1,428.29
54833,2.63,3.2,-98.0,79.5,-0.5038,-0.5509,0.5160,0.4198,0.55,0.41,-0.52,43.242992,-0.040595,0.78,1,428.29
54833,2.63,3.2,-98.0,79.5,-0.5038,-0.5509,0.5160,0.4198,0.55,0.41,-0.52,43.242992,-0.040595,0.78,1,428.29
54833,2.64,3.2,-98.0,79.5,-0.5038,-0.5509,0.5160,0.4198,0.55,0.41,-0.52,43.242992,-0.040595,0.78,1,428.29
54833,2.65,3.2,-98.0,79.5,-0.5038,-0.5509,0.5160,0.4198,0.55,0.41,-0.52,43.242992,-0.040595,0.78,1,428.29
54846,2.66,3.5,-97.4,79.3,-0.5073,-0.5474,0.5151,0.4213,0.61,0.60,-0.20,43.242992,-0.040595,0.78,1,428.29
54846,2.66,3.5,-97.4,79.3,-0.5073,-0.5474,0.5151,0.4213,0.61,0.60,-0.20,43.242992,-0.040595,0.78,1,428.29
54846,2.67,3.5,-97.4,79.3,-0.5073,-0.5474,0.5151,0.4213,0.61,0.60,-0.20,43.242992,-0.040595,0.78,1,428.29
54846,2.68,3.5,-97.4,79.3,-0.5073,-0.5474,0.5151,0.4213,0.61,0.60,-0.20,43.242992,-0.040595,0.78,1,428.29
54846,2.69,3.5,-97.4,79.3,-0.5073,-0.5474,0.5151,0.4213,0.61,0.60,-0.20,43.242992,-0.040595,0.78,1,428.29
54858,2.70,3.6,-96.8,79.1,-0.5116,-0.5437,0.5134,0.4230,0.41,0.55,0.40,43.242992,-0.040595,0.76,1,428.29
54858,2.70,3.6,-96.8,79.1,-0.5116,-0.5437,0.5134,0.4230,0.41,0.55,0.40,43.242992,-0.040595,0.76,1,428.29
54858,2.71,3.6,-96.8,79.1,-0.5116,-0.5437,0.5134,0.4230,0.41,0.55,0.40,43.242992,-0.040595,0.76,1,428.29
54858,2.72,3.6,-96.8,79.1,-0.5116,-0.5437,0.5134,0.4230,0.41,0.55,0.40,43.242992,-0.040595,0.76,1,428.29
54858,2.73,3.6,-96.8,79.1,-0.5116,-0.5437,0.5134,0.4230,0.41,0.55,0.40,43.242992,-0.040595,0.76,1,428.29
54871,2.74,4.1,-95.0,78.5,-0.5224,-0.5355,0.5076,0.4271,-0.23,0.25,0.46,43.242992,-0.040595,0.76,1,428.29
54871,2.75,4.1,-95.0,78.5,-0.5224,-0.5355,0.5076,0.4271,-0.23,0.25,0.46,43.242992,-0.040595,0.76,1,428.29
54871,2.76,4.1,-95.0,78.5,-0.5224,-0.5355,0.5076,0.4271,-0.23,0.25,0.46,43.242992,-0.040595,0.76,1,428.29
54871,2.77,4.1,-95.0,78.5,-0.5224,-0.5355,0.5076,0.4271,-0.23,0.25,0.46,43.242992,-0.040595,0.76,1,428.29
54871,2.78,4.1,-95.0,78.5,-0.5224,-0.5355,0.5076,0.4271,-0.23,0.25,0.46,43.242992,-0.040595,0.76,1,428.29
54884,2.80,4.3,-94.1,78.1,-0.5286,-0.5313,0.5037,0.4295,-0.41,0.00,0.13,43.242992,-0.040595,0.76,1,428.39
54884,2.81,4.3,-94.1,78.1,-0.5286,-0.5313,0.5037,0.4295,-0.41,0.00,0.13,43.242992,-0.040595,0.76,1,428.39
54884,2.82,4.3,-94.1,78.1,-0.5286,-0.5313,0.5037,0.4295,-0.41,0.00,0.13,43.242992,-0.040595,0.76,1,428.39
54884,2.83,4.3,-94.1,78.1,-0.5286,-0.5313,0.5037,0.4295,-0.41,0.00,0.13,43.242992,-0.040595,0.76,1,428.39
54884,2.85,4.3,-94.1,78.1,-0.5286,-0.5313,0.5037,0.4295,-0.41,0.00,0.13,43.242992,-0.040595,0.76,1,428.39
54897,2.88,4.4,-93.1,77.8,-0.5346,-0.5272,0.4992,0.4323,-0.55,-0.01,-0.20,43.242992,-0.040595,0.76,1,428.39
54897,2.89,4.4,-93.1,77.8,-0.5346,-0.5272,0.4992,0.4323,-0.55,-0.01,-0.20,43.242992,-0.040595,0.76,1,428.39
54897,2.91,4.4,-93.1,77.8,-0.5346,-0.5272,0.4992,0.4323,-0.55,-0.01,-0.20,43.242992,-0.040595,0.76,1,428.39
54897,2.92,4.4,-93.1,77.8,-0.5346,-0.5272,0.4992,0.4323,-0.55,-0.01,-0.20,43.242992,-0.040595,0.76,1,428.39
54897,2.94,4.4,-93.1,77.8,-0.5346,-0.5272,0.4992,0.4323,-0.55,-0.01,-0.20,43.242992,-0.040595,0.76,1,428.39
54909,2.96,4.3,-92.0,77.8,-0.5399,-0.5237,0.4940,0.4359,-0.57,0.12,-0.40,43.242992,-0.040595,0.73,1,428.39
54909,2.98,4.3,-92.0,77.8,-0.5399,-0.5237,0.4940,0.4359,-0.57,0.12,-0.40,43.242992,-0.040595,0.73,1,428.39
54909,2.98,4.3,-92.0,77.8,-0.5399,-0.5237,0.4940,0.4359,-0.57,0.12,-0.40,43.242992,-0.040595,0.73,1,428.39
54909,3.00,4.3,-92.0,77.8,-0.5399,-0.5237,0.4940,0.4359,-0.57,0.12,-0.40,43.242992,-0.040595,0.73,1,428.39
54909,3.00,4.3,-92.0,77.8,-0.5399,-0.5237,0.4940,0.4359,-0.57,0.12,-0.40,43.242992,-0.040595,0.73,1,428.39
54922,3.02,3.9,-90.0,78.1,-0.5488,-0.5166,0.4828,0.4457,-0.20,-0.70,-0.75,43.242992,-0.040595,0.73,1,428.39
54922,3.04,3.9,-90.0,78.1,-0.5488,-0.5166,0.4828,0.4457,-0.20,-0.70,-0.75,43.242992,-0.040595,0.73,1,428.39
54922,3.05,3.9,-90.0,78.1,-0.5488,-0.5166,0.4828,0.4457,-0.20,-0.70,-0.75,43.242992,-0.040595,0.73,1,428.39
