tx_timestamp_ms,distance,roll,pitch,yaw,quat_w,quat_x,quat_y,quat_z,accel_x,accel_y,accel_z,latitude,longitude,altitude,flags_raw,gnss_alt
67879,0.44,5.2,-1.3,91.3,0.6973,-0.0247,-0.0405,-0.7150,0.01,0.07,-0.03,43.242862,-0.040312,0.00,1,418.70
67879,0.45,5.2,-1.3,91.3,0.6973,-0.0247,-0.0405,-0.7150,0.01,0.07,-0.03,43.242862,-0.040312,0.00,1,418.70
67879,0.45,5.2,-1.3,91.3,0.6973,-0.0247,-0.0405,-0.7150,0.01,0.07,-0.03,43.242862,-0.040312,0.00,1,418.70
67879,0.45,5.2,-1.3,91.3,0.6973,-0.0247,-0.0405,-0.7150,0.01,0.07,-0.03,43.242862,-0.040312,0.00,1,418.70
67879,0.45,5.2,-1.3,91.3,0.6973,-0.0247,-0.0405,-0.7150,0.01,0.07,-0.03,43.242862,-0.040312,0.00,1,418.70
67892,0.45,5.2,-1.3,91.4,0.6973,-0.0249,-0.0403,-0.7152,0.00,-0.02,0.00,43.242862,-0.040312,0.00,1,418.70
67892,0.44,5.2,-1.3,91.4,0.6973,-0.0249,-0.0403,-0.7152,0.00,-0.02,0.00,43.242862,-0.040312,0.00,1,418.70
67892,0.45,5.2,-1.3,91.4,0.6973,-0.0249,-0.0403,-0.7152,0.00,-0.02,0.00,43.242862,-0.040312,0.00,1,418.70
67892,0.45,5.2,-1.3,91.4,0.6973,-0.0249,-0.0403,-0.7152,0.00,-0.02,0.00,43.242862,-0.040312,0.00,1,418.70
67892,0.45,5.2,-1.3,91.4,0.6973,-0.0249,-0.0403,-0.7152,0.00,-0.02,0.00,43.242862,-0.040312,0.00,1,418.70
67905,0.44,5.2,-1.2,91.4,0.6970,-0.0252,-0.0400,-0.7154,-0.10,-0.12,-0.05,43.242862,-0.040312,0.00,1,418.70
67905,0.44,5.2,-1.2,91.4,0.6970,-0.0252,-0.0400,-0.7154,-0.10,-0.12,-0.05,43.242862,-0.040312,0.00,1,418.70
67905,0.45,5.2,-1.2,91.4,0.6970,-0.0252,-0.0400,-0.7154,-0.10,-0.12,-0.05,43.242862,-0.040312,0.00,1,418.70
67905,0.45,5.2,-1.2,91.4,0.6970,-0.0252,-0.0400,-0.7154,-0.10,-0.12,-0.05,43.242862,-0.040312,0.00,1,418.70
67905,0.45,5.2,-1.2,91.4,0.6970,-0.0252,-0.0400,-0.7154,-0.10,-0.12,-0.05,43.242862,-0.040312,0.00,1,418.70
67917,0.44,5.2,-1.2,91.4,0.6970,-0.0252,-0.0399,-0.7154,-0.11,-0.10,-0.03,43.242862,-0.040312,0.00,1,418.70
67917,0.45,5.2,-1.2,91.4,0.6970,-0.0252,-0.0399,-0.7154,-0.11,-0.10,-0.03,43.242862,-0.040312,0.00,1,418.70
67917,0.45,5.2,-1.2,91.4,0.6970,-0.0252,-0.0399,-0.7154,-0.11,-0.10,-0.03,43.242862,-0.040312,0.00,1,418.70
67917,0.45,5.2,-1.2,91.4,0.6970,-0.0252,-0.0399,-0.7154,-0.11,-0.10,-0.03,43.242862,-0.040312,0.00,1,418.70
67917,0.45,5.2,-1.2,91.4,0.6970,-0.0252,-0.0399,-0.7154,-0.11,-0.10,-0.03,43.242862,-0.040312,0.00,1,418.70
67961,0.44,5.2,-1.2,91.4,0.6970,-0.0252,-0.0400,-0.7154,-0.10,-0.05,-0.05,43.242862,-0.040312,0.05,1,418.70
67961,0.45,5.2,-1.2,91.4,0.6970,-0.0252,-0.0400,-0.7154,-0.10,-0.05,-0.05,43.242862,-0.040312,0.05,1,418.70
67961,0.45,5.2,-1.2,91.4,0.6970,-0.0252,-0.0400,-0.7154,-0.10,-0.05,-0.05,43.242862,-0.040312,0.05,1,418.70
67961,0.45,5.2,-1.2,91.4,0.6970,-0.0252,-0.0400,-0.7154,-0.10,-0.05,-0.05,43.242862,-0.040312,0.05,1,418.70
67961,0.45,5.2,-1.2,91.4,0.6970,-0.0252,-0.0400,-0.7154,-0.10,-0.05,-0.05,43.242862,-0.040312,0.05,1,418.70
67962,0.45,5.2,-1.2,91.4,0.6970,-0.0252,-0.0400,-0.7154,-0.10,-0.05,-0.05,43.242862,-0.040312,0.05,1,418.70
67962,0.44,5.2,-1.2,91.4,0.6970,-0.0252,-0.0400,-0.7154,-0.10,-0.05,-0.05,43.242862,-0.040312,0.05,1,418.70
67962,0.45,5.2,-1.2,91.4,0.6970,-0.0252,-0.0400,-0.7154,-0.10,-0.05,-0.05,43.242862,-0.040312,0.05,1,418.70
67962,0.45,5.2,-1.2,91.4,0.6970,-0.0252,-0.0400,-0.7154,-0.10,-0.05,-0.05,43.242862,-0.040312,0.05,1,418.70
67962,0.45,5.2,-1.2,91.4,0.6970,-0.0252,-0.0400,-0.7154,-0.10,-0.05,-0.05,43.242862,-0.040312,0.05,1,418.70
67962,0.45,5.2,-1.2,91.4,0.6970,-0.0252,-0.0400,-0.7154,-0.10,-0.05,-0.05,43.242862,-0.040312,0.05,1,418.70
67962,0.45,5.2,-1.2,91.4,0.6970,-0.0252,-0.0400,-0.7154,-0.10,-0.05,-0.05,43.242862,-0.040312,0.05,1,418.70
67962,0.45,5.2,-1.2,91.4,0.6970,-0.0252,-0.0400,-0.7154,-0.10,-0.05,-0.05,43.242862,-0.040312,0.05,1,418.70
67962,0.45,5.2,-1.2,91.4,0.6970,-0.0252,-0.0400,-0.7154,-0.10,-0.05,-0.05,43.242862,-0.040312,0.05,1,418.70
67962,0.45,5.2,-1.2,91.4,0.6970,-0.0252,-0.0400,-0.7154,-0.10,-0.05,-0.05,43.242862,-0.040312,0.05,1,418.70
67968,0.45,5.2,-1.2,91.4,0.6970,-0.0252,-0.0400,-0.7154,-0.10,-0.05,-0.05,43.242862,-0.040312,0.05,1,418.70
67968,0.44,5.2,-1.2,91.4,0.6970,-0.0252,-0.0400,-0.7154,-0.10,-0.05,-0.05,43.242862,-0.040312,0.05,1,418.70
67968,0.45,5.2,-1.2,91.4,0.6970,-0.0252,-0.0400,-0.7154,-0.10,-0.05,-0.05,43.242862,-0.040312,0.05,1,418.70
67968,0.44,5.2,-1.2,91.4,0.6970,-0.0252,-0.0400,-0.7154,-0.10,-0.05,-0.05,43.242862,-0.040312,0.05,1,418.70
67968,0.45,5.2,-1.2,91.4,0.6970,-0.0252,-0.0400,-0.7154,-0.10,-0.05,-0.05,43.242862,-0.040312,0.05,1,418.70
67981,0.45,5.2,-1.3,91.4,0.6971,-0.0249,-0.0404,-0.7153,-0.07,0.01,-0.10,43.242862,-0.040312,0.05,1,418.70
67981,0.44,5.2,-1.3,91.4,0.6971,-0.0249,-0.0404,-0.7153,-0.07,0.01,-0.10,43.242862,-0.040312,0.05,1,418.70
67981,0.44,5.2,-1.3,91.4,0.6971,-0.0249,-0.0404,-0.7153,-0.07,0.01,-0.10,43.242862,-0.040312,0.05,1,418.70
67981,0.44,5.2,-1.3,91.4,0.6971,-0.0249,-0.0404,-0.7153,-0.07,0.01,-0.10,43.242862,-0.040312,0.05,1,418.70
67981,0.45,5.2,-1.3,91.4,0.6971,-0.0249,-0.0404,-0.7153,-0.07,0.01,-0.10,43.242862,-0.040312,0.05,1,418.70
67994,0.45,5.2,-1.2,91.4,0.6971,-0.0251,-0.0402,-0.7153,-0.07,-0.03,-0.05,43.242862,-0.040312,0.05,1,418.70
67994,0.44,5.2,-1.2,91.4,0.6971,-0.0251,-0.0402,-0.7153,-0.07,-0.03,-0.05,43.242862,-0.040312,0.05,1,418.70
67994,0.44,5.2,-1.2,91.4,0.6971,-0.0251,-0.0402,-0.7153,-0.07,-0.03,-0.05,43.242862,-0.040312,0.05,1,418.70
67994,0.45,5.2,-1.2,91.4,0.6971,-0.0251,-0.0402,-0.7153,-0.07,-0.03,-0.05,43.242862,-0.040312,0.05,1,418.70
67994,0.45,5.2,-1.2,91.4,0.6971,-0.0251,-0.0402,-0.7153,-0.07,-0.03,-0.05,43.242862,-0.040312,0.05,1,418.70
68019,0.45,5.2,-1.2,91.4,0.6971,-0.0252,-0.0400,-0.7153,-0.05,-0.05,0.00,43.242862,-0.040312,0.09,1,418.70
68019,0.45,5.2,-1.2,91.4,0.6971,-0.0252,-0.0400,-0.7153,-0.05,-0.05,0.00,43.242862,-0.040312,0.09,1,418.70
68019,0.45,5.2,-1.2,91.4,0.6971,-0.0252,-0.0400,-0.7153,-0.05,-0.05,0.00,43.242862,-0.040312,0.09,1,418.70
68019,0.45,5.2,-1.2,91.4,0.6971,-0.0252,-0.0400,-0.7153,-0.05,-0.05,0.00,43.242862,-0.040312,0.09,1,418.70
68019,0.45,5.2,-1.2,91.4,0.6971,-0.0252,-0.0400,-0.7153,-0.05,-0.05,0.00,43.242862,-0.040312,0.09,1,418.70
68032,0.45,5.2,-1.2,91.4,0.6971,-0.0252,-0.0400,-0.7153,-0.03,-0.05,0.00,43.242862,-0.040312,0.09,1,418.70
68032,0.45,5.2,-1.2,91.4,0.6971,-0.0252,-0.0400,-0.7153,-0.03,-0.05,0.00,43.242862,-0.040312,0.09,1,418.70
68032,0.44,5.2,-1.2,91.4,0.6971,-0.0252,-0.0400,-0.7153,-0.03,-0.05,0.00,43.242862,-0.040312,0.09,1,418.70
68032,0.45,5.2,-1.2,91.4,0.6971,-0.0252,-0.0400,-0.7153,-0.03,-0.05,0.00,43.242862,-0.040312,0.09,1,418.70
68032,0.45,5.2,-1.2,91.4,0.6971,-0.0252,-0.0400,-0.7153,-0.03,-0.05,0.00,43.242862,-0.040312,0.09,1,418.70
68045,0.44,5.2,-1.2,91.4,0.6971,-0.0252,-0.0400,-0.7153,-0.02,-0.09,0.02,43.242862,-0.040312,0.09,1,418.70
68045,0.45,5.2,-1.2,91.4,0.6971,-0.0252,-0.0400,-0.7153,-0.02,-0.09,0.02,43.242862,-0.040312,0.09,1,418.70
68045,0.44,5.2,-1.2,91.4,0.6971,-0.0252,-0.0400,-0.7153,-0.02,-0.09,0.02,43.242862,-0.040312,0.09,1,418.70
68045,0.45,5.2,-1.2,91.4,0.6971,-0.0252,-0.0400,-0.7153,-0.02,-0.09,0.02,43.242862,-0.040312,0.09,1,418.70
68045,0.44,5.2,-1.2,91.4,0.6971,-0.0252,-0.0400,-0.7153,-0.02,-0.09,0.02,43.242862,-0.040312,0.09,1,418.70
68057,0.45,5.2,-1.2,91.4,0.6971,-0.0252,-0.0400,-0.7153,-0.02,-0.07,-0.02,43.242862,-0.040312,0.09,1,418.70
68057,0.45,5.2,-1.2,91.4,0.6971,-0.0252,-0.0400,-0.7153,-0.02,-0.07,-0.02,43.242862,-0.040312,0.09,1,418.70
68057,0.45,5.2,-1.2,91.4,0.6971,-0.0252,-0.0400,-0.7153,-0.02,-0.07,-0.02,43.242862,-0.040312,0.09,1,418.70
68057,0.44,5.2,-1.2,91.4,0.6971,-0.0252,-0.0400,-0.7153,-0.02,-0.07,-0.02,43.242862,-0.040312,0.09,1,418.70
68057,0.45,5.2,-1.2,91.4,0.6971,-0.0252,-0.0400,-0.7153,-0.02,-0.07,-0.02,43.242862,-0.040312,0.09,1,418.70
68163,0.45,5.2,-1.2,91.4,0.6972,-0.0251,-0.0399,-0.7152,-0.01,-0.01,-0.12,43.242862,-0.040312,0.18,1,418.70
68163,0.45,5.2,-1.2,91.4,0.6972,-0.0251,-0.0399,-0.7152,-0.01,-0.01,-0.12,43.242862,-0.040312,0.18,1,418.70
68163,0.45,5.2,-1.2,91.4,0.6972,-0.0251,-0.0399,-0.7152,-0.01,-0.01,-0.12,43.242862,-0.040312,0.18,1,418.70
68163,0.45,5.2,-1.2,91.4,0.6972,-0.0251,-0.0399,-0.7152,-0.01,-0.01,-0.12,43.242862,-0.040312,0.18,1,418.70
68163,0.45,5.2,-1.2,91.4,0.6972,-0.0251,-0.0399,-0.7152,-0.01,-0.01,-0.12,43.242862,-0.040312,0.18,1,418.70
68163,0.45,5.2,-1.2,91.4,0.6972,-0.0251,-0.0399,-0.7152,-0.01,-0.01,-0.12,43.242862,-0.040312,0.18,1,418.70
68163,0.45,5.2,-1.2,91.4,0.6972,-0.0251,-0.0399,-0.7152,-0.01,-0.01,-0.12,43.242862,-0.040312,0.18,1,418.70
68163,0.45,5.2,-1.2,91.4,0.6972,-0.0251,-0.0399,-0.7152,-0.01,-0.01,-0.12,43.242862,-0.040312,0.18,1,418.70
68185,0.45,5.2,-1.1,91.3,0.6976,-0.0253,-0.0397,-0.7149,-0.07,0.05,-0.13,43.242862,-0.040312,0.18,1,418.70
68185,0.45,5.2,-1.1,91.3,0.6976,-0.0253,-0.0397,-0.7149,-0.07,0.05,-0.13,43.242862,-0.040312,0.18,1,418.70
68185,0.45,5.2,-1.1,91.3,0.6976,-0.0253,-0.0397,-0.7149,-0.07,0.05,-0.13,43.242862,-0.040312,0.18,1,418.70
68185,0.44,5.2,-1.1,91.3,0.6976,-0.0253,-0.0397,-0.7149,-0.07,0.05,-0.13,43.242862,-0.040312,0.18,1,418.70
68185,0.44,5.2,-1.1,91.3,0.6976,-0.0253,-0.0397,-0.7149,-0.07,0.05,-0.13,43.242862,-0.040312,0.18,1,418.70
68198,0.45,5.2,-1.1,91.3,0.6976,-0.0252,-0.0398,-0.7149,-0.07,0.00,-0.15,43.242862,-0.040312,0.18,1,418.70
68198,0.45,5.2,-1.1,91.3,0.6976,-0.0252,-0.0398,-0.7149,-0.07,0.00,-0.15,43.242862,-0.040312,0.18,1,418.70
68198,0.45,5.2,-1.1,91.3,0.6976,-0.0252,-0.0398,-0.7149,-0.07,0.00,-0.15,43.242862,-0.040312,0.18,1,418.70
68198,0.44,5.2,-1.1,91.3,0.6976,-0.0252,-0.0398,-0.7149,-0.07,0.00,-0.15,43.242862,-0.040312,0.18,1,418.70
68198,0.45,5.2,-1.1,91.3,0.6976,-0.0252,-0.0398,-0.7149,-0.07,0.00,-0.15,43.242862,-0.040312,0.18,1,418.70
68211,0.44,5.2,-1.2,91.3,0.6976,-0.0251,-0.0399,-0.7149,-0.07,0.00,-0.20,43.242862,-0.040312,0.18,1,418.70
68211,0.45,5.2,-1.2,91.3,0.6976,-0.0251,-0.0399,-0.7149,-0.07,0.00,-0.20,43.242862,-0.040312,0.18,1,418.70
68211,0.45,5.2,-1.2,91.3,0.6976,-0.0251,-0.0399,-0.7149,-0.07,0.00,-0.20,43.242862,-0.040312,0.18,1,418.70
68211,0.45,5.2,-1.2,91.3,0.6976,-0.0251,-0.0399,-0.7149,-0.07,0.00,-0.20,43.242862,-0.040312,0.18,1,418.70
68211,0.45,5.2,-1.2,91.3,0.6976,-0.0251,-0.0399,-0.7149,-0.07,0.00,-0.20,43.242862,-0.040312,0.18,1,418.70
68223,0.45,5.2,-1.2,91.3,0.6975,-0.0250,-0.0401,-0.7149,-0.03,-0.02,-0.15,43.242862,-0.040312,0.21,1,418.70
68223,0.44,5.2,-1.2,91.3,0.6975,-0.0250,-0.0401,-0.7149,-0.03,-0.02,-0.15,43.242862,-0.040312,0.21,1,418.70
68223,0.45,5.2,-1.2,91.3,0.6975,-0.0250,-0.0401,-0.7149,-0.03,-0.02,-0.15,43.242862,-0.040312,0.21,1,418.70
68223,0.45,5.2,-1.2,91.3,0.6975,-0.0250,-0.0401,-0.7149,-0.03,-0.02,-0.15,43.242862,-0.040312,0.21,1,418.70
68223,0.45,5.2,-1.2,91.3,0.6975,-0.0250,-0.0401,-0.7149,-0.03,-0.02,-0.15,43.242862,-0.040312,0.21,1,418.70
68236,0.44,5.2,-1.3,91.3,0.6975,-0.0250,-0.0404,-0.7149,0.00,0.01,-0.10,43.242862,-0.040312,0.21,1,418.70
68236,0.44,5.2,-1.3,91.3,0.6975,-0.0250,-0.0404,-0.7149,0.00,0.01,-0.10,43.242862,-0.040312,0.21,1,418.70
68236,0.44,5.2,-1.3,91.3,0.6975,-0.0250,-0.0404,-0.7149,0.00,0.01,-0.10,43.242862,-0.040312,0.21,1,418.70
68236,0.45,5.2,-1.3,91.3,0.6975,-0.0250,-0.0404,-0.7149,0.00,0.01,-0.10,43.242862,-0.040312,0.21,1,418.70
68236,0.44,5.2,-1.3,91.3,0.6975,-0.0250,-0.0404,-0.7149,0.00,0.01,-0.10,43.242862,-0.040312,0.21,1,418.70
68249,0.44,5.2,-1.3,91.3,0.6975,-0.0252,-0.0405,-0.7149,-0.00,0.02,-0.09,43.242862,-0.040312,0.21,1,418.70
68249,0.45,5.2,-1.3,91.3,0.6975,-0.0252,-0.0405,-0.7149,-0.00,0.02,-0.09,43.242862,-0.040312,0.21,1,418.70
68249,0.45,5.2,-1.3,91.3,0.6975,-0.0252,-0.0405,-0.7149,-0.00,0.02,-0.09,43.242862,-0.040312,0.21,1,418.70
68249,0.44,5.2,-1.3,91.3,0.6975,-0.0252,-0.0405,-0.7149,-0.00,0.02,-0.09,43.242862,-0.040312,0.21,1,418.70
68249,0.45,5.2,-1.3,91.3,0.6975,-0.0252,-0.0405,-0.7149,-0.00,0.02,-0.09,43.242862,-0.040312,0.21,1,418.70
68261,0.44,5.3,-1.2,91.3,0.6974,-0.0253,-0.0405,-0.7150,-0.05,-0.05,-0.02,43.242862,-0.040312,0.21,1,418.70
68261,0.44,5.3,-1.2,91.3,0.6974,-0.0253,-0.0405,-0.7150,-0.05,-0.05,-0.02,43.242862,-0.040312,0.21,1,418.70
68261,0.45,5.3,-1.2,91.3,0.6974,-0.0253,-0.0405,-0.7150,-0.05,-0.05,-0.02,43.242862,-0.040312,0.21,1,418.70
68261,0.45,5.3,-1.2,91.3,0.6974,-0.0253,-0.0405,-0.7150,-0.05,-0.05,-0.02,43.242862,-0.040312,0.21,1,418.70
68261,0.44,5.3,-1.2,91.3,0.6974,-0.0253,-0.0405,-0.7150,-0.05,-0.05,-0.02,43.242862,-0.040312,0.21,1,418.70
68274,0.44,5.3,-1.2,91.3,0.6973,-0.0254,-0.0404,-0.7150,-0.05,-0.15,0.02,43.242862,-0.040312,0.23,1,418.70
68274,0.45,5.3,-1.2,91.3,0.6973,-0.0254,-0.0404,-0.7150,-0.05,-0.15,0.02,43.242862,-0.040312,0.23,1,418.70
68274,0.44,5.3,-1.2,91.3,0.6973,-0.0254,-0.0404,-0.7150,-0.05,-0.15,0.02,43.242862,-0.040312,0.23,1,418.70
68274,0.45,5.3,-1.2,91.3,0.6973,-0.0254,-0.0404,-0.7150,-0.05,-0.15,0.02,43.242862,-0.040312,0.23,1,418.70
68274,0.44,5.3,-1.2,91.3,0.6973,-0.0254,-0.0404,-0.7150,-0.05,-0.15,0.02,43.242862,-0.040312,0.23,1,418.70
68287,0.45,5.3,-1.2,91.4,0.6973,-0.0256,-0.0404,-0.7151,-0.05,-0.17,0.05,43.242862,-0.040312,0.23,1,418.70
68287,0.45,5.3,-1.2,91.4,0.6973,-0.0256,-0.0404,-0.7151,-0.05,-0.17,0.05,43.242862,-0.040312,0.23,1,418.70
68287,0.44,5.3,-1.2,91.4,0.6973,-0.0256,-0.0404,-0.7151,-0.05,-0.17,0.05,43.242862,-0.040312,0.23,1,418.70
68287,0.44,5.3,-1.2,91.4,0.6973,-0.0256,-0.0404,-0.7151,-0.05,-0.17,0.05,43.242862,-0.040312,0.23,1,418.70
68287,0.45,5.3,-1.2,91.4,0.6973,-0.0256,-0.0404,-0.7151,-0.05,-0.17,0.05,43.242862,-0.040312,0.23,1,418.70
68300,0.45,5.3,-1.2,91.4,0.6973,-0.0256,-0.0402,-0.7151,-0.09,-0.17,0.03,43.242862,-0.040312,0.23,1,418.70
68300,0.44,5.3,-1.2,91.4,0.6973,-0.0256,-0.0402,-0.7151,-0.09,-0.17,0.03,43.242862,-0.040312,0.23,1,418.70
68300,0.44,5.3,-1.2,91.4,0.6973,-0.0256,-0.0402,-0.7151,-0.09,-0.17,0.03,43.242862,-0.040312,0.23,1,418.70
68300,0.45,5.3,-1.2,91.4,0.6973,-0.0256,-0.0402,-0.7151,-0.09,-0.17,0.03,43.242862,-0.040312,0.23,1,418.70
68300,0.45,5.3,-1.2,91.4,0.6973,-0.0256,-0.0402,-0.7151,-0.09,-0.17,0.03,43.242862,-0.040312,0.23,1,418.70
68312,0.45,5.3,-1.2,91.3,0.6975,-0.0256,-0.0402,-0.7149,-0.00,-0.03,-0.11,43.242862,-0.040312,0.23,1,418.70
68312,0.45,5.3,-1.2,91.3,0.6975,-0.0256,-0.0402,-0.7149,-0.00,-0.03,-0.11,43.242862,-0.040312,0.23,1,418.70
68312,0.44,5.3,-1.2,91.3,0.6975,-0.0256,-0.0402,-0.7149,-0.00,-0.03,-0.11,43.242862,-0.040312,0.23,1,418.70
68312,0.45,5.3,-1.2,91.3,0.6975,-0.0256,-0.0402,-0.7149,-0.00,-0.03,-0.11,43.242862,-0.040312,0.23,1,418.70
68312,0.44,5.3,-1.2,91.3,0.6975,-0.0256,-0.0402,-0.7149,-0.00,-0.03,-0.11,43.242862,-0.040312,0.23,1,418.70
68325,0.45,5.3,-1.2,91.3,0.6976,-0.0255,-0.0404,-0.7147,0.00,0.05,-0.15,43.242862,-0.040312,0.23,1,418.70
68325,0.45,5.3,-1.2,91.3,0.6976,-0.0255,-0.0404,-0.7147,0.00,0.05,-0.15,43.242862,-0.040312,0.23,1,418.70
68325,0.45,5.3,-1.2,91.3,0.6976,-0.0255,-0.0404,-0.7147,0.00,0.05,-0.15,43.242862,-0.040312,0.23,1,418.70
68325,0.44,5.3,-1.2,91.3,0.6976,-0.0255,-0.0404,-0.7147,0.00,0.05,-0.15,43.242862,-0.040312,0.23,1,418.70
68325,0.45,5.3,-1.2,91.3,0.6976,-0.0255,-0.0404,-0.7147,0.00,0.05,-0.15,43.242862,-0.040312,0.23,1,418.70
68338,0.45,5.3,-1.3,91.3,0.6979,-0.0253,-0.0408,-0.7145,0.00,0.15,-0.10,43.242862,-0.040312,0.23,1,418.70
68338,0.45,5.3,-1.3,91.3,0.6979,-0.0253,-0.0408,-0.7145,0.00,0.15,-0.10,43.242862,-0.040312,0.23,1,418.70
68338,0.45,5.3,-1.3,91.3,0.6979,-0.0253,-0.0408,-0.7145,0.00,0.15,-0.10,43.242862,-0.040312,0.23,1,418.70
68338,0.45,5.3,-1.3,91.3,0.6979,-0.0253,-0.0408,-0.7145,0.00,0.15,-0.10,43.242862,-0.040312,0.23,1,418.70
68338,0.45,5.3,-1.3,91.3,0.6979,-0.0253,-0.0408,-0.7145,0.00,0.15,-0.10,43.242862,-0.040312,0.23,1,418.70
68351,0.44,5.3,-1.3,91.3,0.6979,-0.0253,-0.0408,-0.7145,0.00,0.15,-0.10,43.242862,-0.040312,0.23,1,418.70
68351,0.44,5.3,-1.3,91.3,0.6979,-0.0253,-0.0408,-0.7145,0.00,0.15,-0.10,43.242862,-0.040312,0.23,1,418.70
68351,0.44,5.3,-1.3,91.3,0.6979,-0.0253,-0.0408,-0.7145,0.00,0.15,-0.10,43.242862,-0.040312,0.23,1,418.70
68351,0.45,5.3,-1.3,91.3,0.6979,-0.0253,-0.0408,-0.7145,0.00,0.15,-0.10,43.242862,-0.040312,0.23,1,418.70
68351,0.45,5.3,-1.3,91.3,0.6979,-0.0253,-0.0408,-0.7145,0.00,0.15,-0.10,43.242862,-0.040312,0.23,1,418.70
68363,0.44,5.3,-1.3,91.3,0.6978,-0.0253,-0.0407,-0.7145,-0.07,-0.12,-0.05,43.242862,-0.040312,0.23,1,418.70
68363,0.45,5.3,-1.3,91.3,0.6978,-0.0253,-0.0407,-0.7145,-0.07,-0.12,-0.05,43.242862,-0.040312,0.23,1,418.70
68363,0.45,5.3,-1.3,91.3,0.6978,-0.0253,-0.0407,-0.7145,-0.07,-0.12,-0.05,43.242862,-0.040312,0.23,1,418.70
68363,0.45,5.3,-1.3,91.3,0.6978,-0.0253,-0.0407,-0.7145,-0.07,-0.12,-0.05,43.242862,-0.040312,0.23,1,418.70
68363,0.44,5.3,-1.3,91.3,0.6978,-0.0253,-0.0407,-0.7145,-0.07,-0.12,-0.05,43.242862,-0.040312,0.23,1,418.70
68376,0.45,5.3,-1.2,91.3,0.6977,-0.0255,-0.0406,-0.7147,-0.07,-0.13,-0.02,43.242862,-0.040313,0.21,1,418.70
68376,0.45,5.3,-1.2,91.3,0.6977,-0.0255,-0.0406,-0.7147,-0.07,-0.13,-0.02,43.242862,-0.040313,0.21,1,418.70
68376,0.44,5.3,-1.2,91.3,0.6977,-0.0255,-0.0406,-0.7147,-0.07,-0.13,-0.02,43.242862,-0.040313,0.21,1,418.70
68376,0.45,5.3,-1.2,91.3,0.6977,-0.0255,-0.0406,-0.7147,-0.07,-0.13,-0.02,43.242862,-0.040313,0.21,1,418.70
68376,0.45,5.3,-1.2,91.3,0.6977,-0.0255,-0.0406,-0.7147,-0.07,-0.13,-0.02,43.242862,-0.040313,0.21,1,418.70
68389,0.45,5.3,-1.2,91.3,0.6977,-0.0255,-0.0405,-0.7147,-0.07,-0.13,-0.02,43.242862,-0.040313,0.21,1,418.70
68389,0.44,5.3,-1.2,91.3,0.6977,-0.0255,-0.0405,-0.7147,-0.07,-0.13,-0.02,43.242862,-0.040313,0.21,1,418.70
68389,0.44,5.3,-1.2,91.3,0.6977,-0.0255,-0.0405,-0.7147,-0.07,-0.13,-0.02,43.242862,-0.040313,0.21,1,418.70
68389,0.44,5.3,-1.2,91.3,0.6977,-0.0255,-0.0405,-0.7147,-0.07,-0.13,-0.02,43.242862,-0.040313,0.21,1,418.70
68389,0.45,5.3,-1.2,91.3,0.6977,-0.0255,-0.0405,-0.7147,-0.07,-0.13,-0.02,43.242862,-0.040313,0.21,1,418.70
68402,0.44,5.3,-1.2,91.3,0.6978,-0.0256,-0.0404,-0.7145,0.01,0.12,-0.05,43.242862,-0.040313,0.21,1,418.70
68402,0.45,5.3,-1.2,91.3,0.6978,-0.0256,-0.0404,-0.7145,0.01,0.12,-0.05,43.242862,-0.040313,0.21,1,418.70
68402,0.44,5.3,-1.2,91.3,0.6978,-0.0256,-0.0404,-0.7145,0.01,0.12,-0.05,43.242862,-0.040313,0.21,1,418.70
68402,0.45,5.3,-1.2,91.3,0.6978,-0.0256,-0.0404,-0.7145,0.01,0.12,-0.05,43.242862,-0.040313,0.21,1,418.70
68402,0.45,5.3,-1.2,91.3,0.6978,-0.0256,-0.0404,-0.7145,0.01,0.12,-0.05,43.242862,-0.040313,0.21,1,418.70
68414,0.44,5.3,-1.2,91.3,0.6980,-0.0256,-0.0404,-0.7144,0.00,0.15,-0.00,43.242862,-0.040313,0.21,1,418.70
68414,0.44,5.3,-1.2,91.3,0.6980,-0.0256,-0.0404,-0.7144,0.00,0.15,-0.00,43.242862,-0.040313,0.21,1,418.70
68414,0.44,5.3,-1.2,91.3,0.6980,-0.0256,-0.0404,-0.7144,0.00,0.15,-0.00,43.242862,-0.040313,0.21,1,418.70
68414,0.45,5.3,-1.2,91.3,0.6980,-0.0256,-0.0404,-0.7144,0.00,0.15,-0.00,43.242862,-0.040313,0.21,1,418.70
68414,0.44,5.3,-1.2,91.3,0.6980,-0.0256,-0.0404,-0.7144,0.00,0.15,-0.00,43.242862,-0.040313,0.21,1,418.70
68427,0.45,5.3,-1.2,91.3,0.6981,-0.0256,-0.0405,-0.7143,-0.00,0.12,-0.00,43.242862,-0.040313,0.19,1,418.70
68427,0.44,5.3,-1.2,91.3,0.6981,-0.0256,-0.0405,-0.7143,-0.00,0.12,-0.00,43.242862,-0.040313,0.19,1,418.70
68427,0.45,5.3,-1.2,91.3,0.6981,-0.0256,-0.0405,-0.7143,-0.00,0.12,-0.00,43.242862,-0.040313,0.19,1,418.70
68427,0.45,5.3,-1.2,91.3,0.6981,-0.0256,-0.0405,-0.7143,-0.00,0.12,-0.00,43.242862,-0.040313,0.19,1,418.70
68427,0.45,5.3,-1.2,91.3,0.6981,-0.0256,-0.0405,-0.7143,-0.00,0.12,-0.00,43.242862,-0.040313,0.19,1,418.70
68440,0.45,5.3,-1.2,91.3,0.6980,-0.0256,-0.0404,-0.7144,-0.05,0.05,0.05,43.242862,-0.040313,0.19,1,418.70
68440,0.45,5.3,-1.2,91.3,0.6980,-0.0256,-0.0404,-0.7144,-0.05,0.05,0.05,43.242862,-0.040313,0.19,1,418.70
68440,0.44,5.3,-1.2,91.3,0.6980,-0.0256,-0.0404,-0.7144,-0.05,0.05,0.05,43.242862,-0.040313,0.19,1,418.70
68440,0.45,5.3,-1.2,91.3,0.6980,-0.0256,-0.0404,-0.7144,-0.05,0.05,0.05,43.242862,-0.040313,0.19,1,418.70
68440,0.45,5.3,-1.2,91.3,0.6980,-0.0256,-0.0404,-0.7144,-0.05,0.05,0.05,43.242862,-0.040313,0.19,1,418.70
68453,0.45,5.3,-1.2,91.3,0.6979,-0.0256,-0.0402,-0.7145,-0.11,-0.11,-0.07,43.242862,-0.040313,0.19,1,418.70
68453,0.45,5.3,-1.2,91.3,0.6979,-0.0256,-0.0402,-0.7145,-0.11,-0.11,-0.07,43.242862,-0.040313,0.19,1,418.70
68453,0.45,5.3,-1.2,91.3,0.6979,-0.0256,-0.0402,-0.7145,-0.11,-0.11,-0.07,43.242862,-0.040313,0.19,1,418.70
68453,0.44,5.3,-1.2,91.3,0.6979,-0.0256,-0.0402,-0.7145,-0.11,-0.11,-0.07,43.242862,-0.040313,0.19,1,418.70
68453,0.45,5.3,-1.2,91.3,0.6979,-0.0256,-0.0402,-0.7145,-0.11,-0.11,-0.07,43.242862,-0.040313,0.19,1,418.70
68466,0.45,5.3,-1.1,91.3,0.6979,-0.0255,-0.0401,-0.7145,-0.11,-0.11,-0.12,43.242862,-0.040313,0.19,1,418.70
68466,0.45,5.3,-1.1,91.3,0.6979,-0.0255,-0.0401,-0.7145,-0.11,-0.11,-0.12,43.242862,-0.040313,0.19,1,418.70
68466,0.45,5.3,-1.1,91.3,0.6979,-0.0255,-0.0401,-0.7145,-0.11,-0.11,-0.12,43.242862,-0.040313,0.19,1,418.70
68466,0.45,5.3,-1.1,91.3,0.6979,-0.0255,-0.0401,-0.7145,-0.11,-0.11,-0.12,43.242862,-0.040313,0.19,1,418.70
68466,0.45,5.3,-1.1,91.3,0.6979,-0.0255,-0.0401,-0.7145,-0.11,-0.11,-0.12,43.242862,-0.040313,0.19,1,418.70
68478,0.45,5.2,-1.1,91.3,0.6980,-0.0254,-0.0399,-0.7144,-0.10,-0.07,-0.18,43.242862,-0.040313,0.18,1,418.70
68478,0.45,5.2,-1.1,91.3,0.6980,-0.0254,-0.0399,-0.7144,-0.10,-0.07,-0.18,43.242862,-0.040313,0.18,1,418.70
68478,0.45,5.2,-1.1,91.3,0.6980,-0.0254,-0.0399,-0.7144,-0.10,-0.07,-0.18,43.242862,-0.040313,0.18,1,418.70
68478,0.45,5.2,-1.1,91.3,0.6980,-0.0254,-0.0399,-0.7144,-0.10,-0.07,-0.18,43.242862,-0.040313,0.18,1,418.70
68478,0.45,5.2,-1.1,91.3,0.6980,-0.0254,-0.0399,-0.7144,-0.10,-0.07,-0.18,43.242862,-0.040313,0.18,1,418.70
68491,0.45,5.2,-1.1,91.3,0.6980,-0.0254,-0.0399,-0.7144,-0.10,-0.07,-0.18,43.242862,-0.040313,0.18,1,418.70
68491,0.45,5.2,-1.1,91.3,0.6980,-0.0254,-0.0399,-0.7144,-0.10,-0.07,-0.18,43.242862,-0.040313,0.18,1,418.70
68491,0.45,5.2,-1.1,91.3,0.6980,-0.0254,-0.0399,-0.7144,-0.10,-0.07,-0.18,43.242862,-0.040313,0.18,1,418.70
68491,0.45,5.2,-1.1,91.3,0.6980,-0.0254,-0.0399,-0.7144,-0.10,-0.07,-0.18,43.242862,-0.040313,0.18,1,418.70
68491,0.45,5.2,-1.1,91.3,0.6980,-0.0254,-0.0399,-0.7144,-0.10,-0.07,-0.18,43.242862,-0.040313,0.18,1,418.70
68504,0.45,5.2,-1.3,91.2,0.6985,-0.0249,-0.0403,-0.7139,0.03,0.23,-0.37,43.242862,-0.040313,0.18,1,418.70
68504,0.45,5.2,-1.3,91.2,0.6985,-0.0249,-0.0403,-0.7139,0.03,0.23,-0.37,43.242862,-0.040313,0.18,1,418.70
68504,0.45,5.2,-1.3,91.2,0.6985,-0.0249,-0.0403,-0.7139,0.03,0.23,-0.37,43.242862,-0.040313,0.18,1,418.70
68504,0.45,5.2,-1.3,91.2,0.6985,-0.0249,-0.0403,-0.7139,0.03,0.23,-0.37,43.242862,-0.040313,0.18,1,418.70
68504,0.45,5.2,-1.3,91.2,0.6985,-0.0249,-0.0403,-0.7139,0.03,0.23,-0.37,43.242862,-0.040313,0.18,1,418.70
68517,0.45,5.2,-1.3,91.2,0.6986,-0.0248,-0.0404,-0.7139,0.03,0.20,-0.34,43.242862,-0.040313,0.18,1,418.79
68517,0.45,5.2,-1.3,91.2,0.6986,-0.0248,-0.0404,-0.7139,0.03,0.20,-0.34,43.242862,-0.040313,0.18,1,418.79
68517,0.45,5.2,-1.3,91.2,0.6986,-0.0248,-0.0404,-0.7139,0.03,0.20,-0.34,43.242862,-0.040313,0.18,1,418.79
68517,0.45,5.2,-1.3,91.2,0.6986,-0.0248,-0.0404,-0.7139,0.03,0.20,-0.34,43.242862,-0.040313,0.18,1,418.79
68517,0.45,5.2,-1.3,91.2,0.6986,-0.0248,-0.0404,-0.7139,0.03,0.20,-0.34,43.242862,-0.040313,0.18,1,418.79
68529,0.45,5.2,-1.3,91.1,0.6985,-0.0249,-0.0405,-0.7139,0.05,0.05,-0.20,43.242862,-0.040313,0.18,1,418.79
68529,0.45,5.2,-1.3,91.1,0.6985,-0.0249,-0.0405,-0.7139,0.05,0.05,-0.20,43.242862,-0.040313,0.18,1,418.79
68529,0.45,5.2,-1.3,91.1,0.6985,-0.0249,-0.0405,-0.7139,0.05,0.05,-0.20,43.242862,-0.040313,0.18,1,418.79
68529,0.45,5.2,-1.3,91.1,0.6985,-0.0249,-0.0405,-0.7139,0.05,0.05,-0.20,43.242862,-0.040313,0.18,1,418.79
68529,0.45,5.2,-1.3,91.1,0.6985,-0.0249,-0.0405,-0.7139,0.05,0.05,-0.20,43.242862,-0.040313,0.18,1,418.79
68542,0.45,5.2,-1.3,91.2,0.6984,-0.0250,-0.0405,-0.7140,0.03,0.00,-0.05,43.242862,-0.040313,0.18,1,418.79
68542,0.45,5.2,-1.3,91.2,0.6984,-0.0250,-0.0405,-0.7140,0.03,0.00,-0.05,43.242862,-0.040313,0.18,1,418.79
68542,0.45,5.2,-1.3,91.2,0.6984,-0.0250,-0.0405,-0.7140,0.03,0.00,-0.05,43.242862,-0.040313,0.18,1,418.79
68542,0.45,5.2,-1.3,91.2,0.6984,-0.0250,-0.0405,-0.7140,0.03,0.00,-0.05,43.242862,-0.040313,0.18,1,418.79
68542,0.45,5.2,-1.3,91.2,0.6984,-0.0250,-0.0405,-0.7140,0.03,0.00,-0.05,43.242862,-0.040313,0.18,1,418.79
68555,0.45,5.3,-1.2,91.2,0.6982,-0.0255,-0.0404,-0.7142,-0.02,-0.15,0.00,43.242862,-0.040313,0.18,1,418.79
68555,0.45,5.3,-1.2,91.2,0.6982,-0.0255,-0.0404,-0.7142,-0.02,-0.15,0.00,43.242862,-0.040313,0.18,1,418.79
68555,0.45,5.3,-1.2,91.2,0.6982,-0.0255,-0.0404,-0.7142,-0.02,-0.15,0.00,43.242862,-0.040313,0.18,1,418.79
68555,0.45,5.3,-1.2,91.2,0.6982,-0.0255,-0.0404,-0.7142,-0.02,-0.15,0.00,43.242862,-0.040313,0.18,1,418.79
68555,0.45,5.3,-1.2,91.2,0.6982,-0.0255,-0.0404,-0.7142,-0.02,-0.15,0.00,43.242862,-0.040313,0.18,1,418.79
68568,0.45,5.3,-1.1,91.2,0.6981,-0.0258,-0.0402,-0.7142,-0.02,-0.12,0.05,43.242862,-0.040313,0.18,1,418.79
68568,0.45,5.3,-1.1,91.2,0.6981,-0.0258,-0.0402,-0.7142,-0.02,-0.12,0.05,43.242862,-0.040313,0.18,1,418.79
68568,0.45,5.3,-1.1,91.2,0.6981,-0.0258,-0.0402,-0.7142,-0.02,-0.12,0.05,43.242862,-0.040313,0.18,1,418.79
68568,0.44,5.3,-1.1,91.2,0.6981,-0.0258,-0.0402,-0.7142,-0.02,-0.12,0.05,43.242862,-0.040313,0.18,1,418.79
68568,0.45,5.3,-1.1,91.2,0.6981,-0.0258,-0.0402,-0.7142,-0.02,-0.12,0.05,43.242862,-0.040313,0.18,1,418.79
68580,0.44,5.3,-1.1,91.2,0.6982,-0.0260,-0.0401,-0.7142,0.00,-0.07,0.05,43.242862,-0.040313,0.17,1,418.79
68580,0.45,5.3,-1.1,91.2,0.6982,-0.0260,-0.0401,-0.7142,0.00,-0.07,0.05,43.242862,-0.040313,0.17,1,418.79
68580,0.44,5.3,-1.1,91.2,0.6982,-0.0260,-0.0401,-0.7142,0.00,-0.07,0.05,43.242862,-0.040313,0.17,1,418.79
68580,0.44,5.3,-1.1,91.2,0.6982,-0.0260,-0.0401,-0.7142,0.00,-0.07,0.05,43.242862,-0.040313,0.17,1,418.79
68580,0.45,5.3,-1.1,91.2,0.6982,-0.0260,-0.0401,-0.7142,0.00,-0.07,0.05,43.242862,-0.040313,0.17,1,418.79
68593,0.45,5.3,-1.1,91.2,0.6983,-0.0260,-0.0402,-0.7141,-0.01,0.00,0.01,43.242862,-0.040313,0.17,1,418.79
68593,0.44,5.3,-1.1,91.2,0.6983,-0.0260,-0.0402,-0.7141,-0.01,0.00,0.01,43.242862,-0.040313,0.17,1,418.79
68593,0.45,5.3,-1.1,91.2,0.6983,-0.0260,-0.0402,-0.7141,-0.01,0.00,0.01,43.242862,-0.040313,0.17,1,418.79
68593,0.44,5.3,-1.1,91.2,0.6983,-0.0260,-0.0402,-0.7141,-0.01,0.00,0.01,43.242862,-0.040313,0.17,1,418.79
68593,0.45,5.3,-1.1,91.2,0.6983,-0.0260,-0.0402,-0.7141,-0.01,0.00,0.01,43.242862,-0.040313,0.17,1,418.79
68606,0.44,5.3,-1.1,91.2,0.6983,-0.0260,-0.0402,-0.7141,-0.03,0.00,0.00,43.242862,-0.040313,0.17,1,418.79
68606,0.45,5.3,-1.1,91.2,0.6983,-0.0260,-0.0402,-0.7141,-0.03,0.00,0.00,43.242862,-0.040313,0.17,1,418.79
68606,0.45,5.3,-1.1,91.2,0.6983,-0.0260,-0.0402,-0.7141,-0.03,0.00,0.00,43.242862,-0.040313,0.17,1,418.79
68606,0.44,5.3,-1.1,91.2,0.6983,-0.0260,-0.0402,-0.7141,-0.03,0.00,0.00,43.242862,-0.040313,0.17,1,418.79
68606,0.45,5.3,-1.1,91.2,0.6983,-0.0260,-0.0402,-0.7141,-0.03,0.00,0.00,43.242862,-0.040313,0.17,1,418.79
68619,0.45,5.3,-1.1,91.2,0.6983,-0.0260,-0.0403,-0.7141,-0.05,-0.03,0.00,43.242862,-0.040313,0.17,1,418.79
68619,0.45,5.3,-1.1,91.2,0.6983,-0.0260,-0.0403,-0.7141,-0.05,-0.03,0.00,43.242862,-0.040313,0.17,1,418.79
68619,0.44,5.3,-1.1,91.2,0.6983,-0.0260,-0.0403,-0.7141,-0.05,-0.03,0.00,43.242862,-0.040313,0.17,1,418.79
68619,0.45,5.3,-1.1,91.2,0.6983,-0.0260,-0.0403,-0.7141,-0.05,-0.03,0.00,43.242862,-0.040313,0.17,1,418.79
68619,0.44,5.3,-1.1,91.2,0.6983,-0.0260,-0.0403,-0.7141,-0.05,-0.03,0.00,43.242862,-0.040313,0.17,1,418.79
68631,0.45,5.3,-1.1,91.2,0.6983,-0.0260,-0.0403,-0.7141,-0.05,-0.07,0.02,43.242862,-0.040313,0.17,1,418.79
68631,0.45,5.3,-1.1,91.2,0.6983,-0.0260,-0.0403,-0.7141,-0.05,-0.07,0.02,43.242862,-0.040313,0.17,1,418.79
68631,0.45,5.3,-1.1,91.2,0.6983,-0.0260,-0.0403,-0.7141,-0.05,-0.07,0.02,43.242862,-0.040313,0.17,1,418.79
68631,0.45,5.3,-1.1,91.2,0.6983,-0.0260,-0.0403,-0.7141,-0.05,-0.07,0.02,43.242862,-0.040313,0.17,1,418.79
68631,0.45,5.3,-1.1,91.2,0.6983,-0.0260,-0.0403,-0.7141,-0.05,-0.07,0.02,43.242862,-0.040313,0.17,1,418.79
68644,0.45,5.3,-1.1,91.2,0.6984,-0.0260,-0.0404,-0.7140,-0.01,0.03,-0.10,43.242862,-0.040313,0.17,1,418.79
68644,0.44,5.3,-1.1,91.2,0.6984,-0.0260,-0.0404,-0.7140,-0.01,0.03,-0.10,43.242862,-0.040313,0.17,1,418.79
68644,0.45,5.3,-1.1,91.2,0.6984,-0.0260,-0.0404,-0.7140,-0.01,0.03,-0.10,43.242862,-0.040313,0.17,1,418.79
68644,0.45,5.3,-1.1,91.2,0.6984,-0.0260,-0.0404,-0.7140,-0.01,0.03,-0.10,43.242862,-0.040313,0.17,1,418.79
68644,0.45,5.3,-1.1,91.2,0.6984,-0.0260,-0.0404,-0.7140,-0.01,0.03,-0.10,43.242862,-0.040313,0.17,1,418.79
68657,0.45,5.3,-1.1,91.1,0.6986,-0.0260,-0.0404,-0.7139,-0.05,0.05,-0.12,43.242862,-0.040313,0.17,1,418.79
68657,0.45,5.3,-1.1,91.1,0.6986,-0.0260,-0.0404,-0.7139,-0.05,0.05,-0.12,43.242862,-0.040313,0.17,1,418.79
68657,0.45,5.3,-1.1,91.1,0.6986,-0.0260,-0.0404,-0.7139,-0.05,0.05,-0.12,43.242862,-0.040313,0.17,1,418.79
68657,0.44,5.3,-1.1,91.1,0.6986,-0.0260,-0.0404,-0.7139,-0.05,0.05,-0.12,43.242862,-0.040313,0.17,1,418.79
68657,0.45,5.3,-1.1,91.1,0.6986,-0.0260,-0.0404,-0.7139,-0.05,0.05,-0.12,43.242862,-0.040313,0.17,1,418.79
68669,0.45,5.3,-1.1,91.1,0.6986,-0.0260,-0.0404,-0.7138,-0.01,0.10,-0.12,43.242862,-0.040313,0.17,1,418.79
68669,0.45,5.3,-1.1,91.1,0.6986,-0.0260,-0.0404,-0.7138,-0.01,0.10,-0.12,43.242862,-0.040313,0.17,1,418.79
68669,0.45,5.3,-1.1,91.1,0.6986,-0.0260,-0.0404,-0.7138,-0.01,0.10,-0.12,43.242862,-0.040313,0.17,1,418.79
68669,0.45,5.3,-1.1,91.1,0.6986,-0.0260,-0.0404,-0.7138,-0.01,0.10,-0.12,43.242862,-0.040313,0.17,1,418.79
68669,0.45,5.3,-1.1,91.1,0.6986,-0.0260,-0.0404,-0.7138,-0.01,0.10,-0.12,43.242862,-0.040313,0.17,1,418.79
68682,0.44,5.3,-1.1,91.1,0.6986,-0.0259,-0.0404,-0.7138,-0.01,0.07,-0.05,43.242862,-0.040313,0.15,1,418.79
68682,0.45,5.3,-1.1,91.1,0.6986,-0.0259,-0.0404,-0.7138,-0.01,0.07,-0.05,43.242862,-0.040313,0.15,1,418.79
68682,0.45,5.3,-1.1,91.1,0.6986,-0.0259,-0.0404,-0.7138,-0.01,0.07,-0.05,43.242862,-0.040313,0.15,1,418.79
68682,0.45,5.3,-1.1,91.1,0.6986,-0.0259,-0.0404,-0.7138,-0.01,0.07,-0.05,43.242862,-0.040313,0.15,1,418.79
68682,0.45,5.3,-1.1,91.1,0.6986,-0.0259,-0.0404,-0.7138,-0.01,0.07,-0.05,43.242862,-0.040313,0.15,1,418.79
68695,0.44,5.3,-1.1,91.1,0.6986,-0.0260,-0.0403,-0.7138,-0.07,0.01,0.01,43.242862,-0.040313,0.15,1,418.79
68695,0.45,5.3,-1.1,91.1,0.6986,-0.0260,-0.0403,-0.7138,-0.07,0.01,0.01,43.242862,-0.040313,0.15,1,418.79
68695,0.44,5.3,-1.1,91.1,0.6986,-0.0260,-0.0403,-0.7138,-0.07,0.01,0.01,43.242862,-0.040313,0.15,1,418.79
68695,0.44,5.3,-1.1,91.1,0.6986,-0.0260,-0.0403,-0.7138,-0.07,0.01,0.01,43.242862,-0.040313,0.15,1,418.79
68695,0.45,5.3,-1.1,91.1,0.6986,-0.0260,-0.0403,-0.7138,-0.07,0.01,0.01,43.242862,-0.040313,0.15,1,418.79
68708,0.44,5.3,-1.1,91.1,0.6986,-0.0260,-0.0402,-0.7139,-0.07,0.00,-0.01,43.242862,-0.040313,0.15,1,418.79
68708,0.45,5.3,-1.1,91.1,0.6986,-0.0260,-0.0402,-0.7139,-0.07,0.00,-0.01,43.242862,-0.040313,0.15,1,418.79
68708,0.44,5.3,-1.1,91.1,0.6986,-0.0260,-0.0402,-0.7139,-0.07,0.00,-0.01,43.242862,-0.040313,0.15,1,418.79
68708,0.44,5.3,-1.1,91.1,0.6986,-0.0260,-0.0402,-0.7139,-0.07,0.00,-0.01,43.242862,-0.040313,0.15,1,418.79
68708,0.45,5.3,-1.1,91.1,0.6986,-0.0260,-0.0402,-0.7139,-0.07,0.00,-0.01,43.242862,-0.040313,0.15,1,418.79
68721,0.45,5.3,-1.1,91.2,0.6985,-0.0260,-0.0401,-0.7139,-0.03,-0.05,-0.05,43.242862,-0.040313,0.15,1,418.70
68721,0.44,5.3,-1.1,91.2,0.6985,-0.0260,-0.0401,-0.7139,-0.03,-0.05,-0.05,43.242862,-0.040313,0.15,1,418.70
68721,0.44,5.3,-1.1,91.2,0.6985,-0.0260,-0.0401,-0.7139,-0.03,-0.05,-0.05,43.242862,-0.040313,0.15,1,418.70
68721,0.45,5.3,-1.1,91.2,0.6985,-0.0260,-0.0401,-0.7139,-0.03,-0.05,-0.05,43.242862,-0.040313,0.15,1,418.70
68721,0.45,5.3,-1.1,91.2,0.6985,-0.0260,-0.0401,-0.7139,-0.03,-0.05,-0.05,43.242862,-0.040313,0.15,1,418.70
68733,0.45,5.3,-1.1,91.2,0.6985,-0.0260,-0.0401,-0.7139,-0.03,0.00,-0.10,43.242862,-0.040313,0.13,1,418.70
68733,0.45,5.3,-1.1,91.2,0.6985,-0.0260,-0.0401,-0.7139,-0.03,0.00,-0.10,43.242862,-0.040313,0.13,1,418.70
68733,0.45,5.3,-1.1,91.2,0.6985,-0.0260,-0.0401,-0.7139,-0.03,0.00,-0.10,43.242862,-0.040313,0.13,1,418.70
68733,0.45,5.3,-1.1,91.2,0.6985,-0.0260,-0.0401,-0.7139,-0.03,0.00,-0.10,43.242862,-0.040313,0.13,1,418.70
68733,0.45,5.3,-1.1,91.2,0.6985,-0.0260,-0.0401,-0.7139,-0.03,0.00,-0.10,43.242862,-0.040313,0.13,1,418.70
68746,0.45,5.3,-1.1,91.1,0.6986,-0.0258,-0.0399,-0.7139,-0.05,0.07,-0.10,43.242862,-0.040313,0.13,1,418.70
68746,0.45,5.3,-1.1,91.1,0.6986,-0.0258,-0.0399,-0.7139,-0.05,0.07,-0.10,43.242862,-0.040313,0.13,1,418.70
68746,0.45,5.3,-1.1,91.1,0.6986,-0.0258,-0.0399,-0.7139,-0.05,0.07,-0.10,43.242862,-0.040313,0.13,1,418.70
68746,0.45,5.3,-1.1,91.1,0.6986,-0.0258,-0.0399,-0.7139,-0.05,0.07,-0.10,43.242862,-0.040313,0.13,1,418.70
68746,0.44,5.3,-1.1,91.1,0.6986,-0.0258,-0.0399,-0.7139,-0.05,0.07,-0.10,43.242862,-0.040313,0.13,1,418.70
68759,0.45,5.3,-1.1,91.1,0.6986,-0.0258,-0.0399,-0.7139,-0.03,0.05,-0.12,43.242862,-0.040313,0.13,1,418.70
68759,0.45,5.3,-1.1,91.1,0.6986,-0.0258,-0.0399,-0.7139,-0.03,0.05,-0.12,43.242862,-0.040313,0.13,1,418.70
68759,0.45,5.3,-1.1,91.1,0.6986,-0.0258,-0.0399,-0.7139,-0.03,0.05,-0.12,43.242862,-0.040313,0.13,1,418.70
68759,0.45,5.3,-1.1,91.1,0.6986,-0.0258,-0.0399,-0.7139,-0.03,0.05,-0.12,43.242862,-0.040313,0.13,1,418.70
68759,0.45,5.3,-1.1,91.1,0.6986,-0.0258,-0.0399,-0.7139,-0.03,0.05,-0.12,43.242862,-0.040313,0.13,1,418.70
68772,0.45,5.3,-1.1,91.1,0.6986,-0.0258,-0.0399,-0.7139,-0.02,0.00,-0.12,43.242862,-0.040313,0.13,1,418.70
68772,0.45,5.3,-1.1,91.1,0.6986,-0.0258,-0.0399,-0.7139,-0.02,0.00,-0.12,43.242862,-0.040313,0.13,1,418.70
68772,0.45,5.3,-1.1,91.1,0.6986,-0.0258,-0.0399,-0.7139,-0.02,0.00,-0.12,43.242862,-0.040313,0.13,1,418.70
68772,0.44,5.3,-1.1,91.1,0.6986,-0.0258,-0.0399,-0.7139,-0.02,0.00,-0.12,43.242862,-0.040313,0.13,1,418.70
68772,0.45,5.3,-1.1,91.1,0.6986,-0.0258,-0.0399,-0.7139,-0.02,0.00,-0.12,43.242862,-0.040313,0.13,1,418.70
68784,0.45,5.3,-1.1,91.1,0.6986,-0.0258,-0.0400,-0.7139,-0.01,0.00,-0.13,43.242862,-0.040313,0.12,1,418.70
68784,0.45,5.3,-1.1,91.1,0.6986,-0.0258,-0.0400,-0.7139,-0.01,0.00,-0.13,43.242862,-0.040313,0.12,1,418.70
68784,0.44,5.3,-1.1,91.1,0.6986,-0.0258,-0.0400,-0.7139,-0.01,0.00,-0.13,43.242862,-0.040313,0.12,1,418.70
68784,0.44,5.3,-1.1,91.1,0.6986,-0.0258,-0.0400,-0.7139,-0.01,0.00,-0.13,43.242862,-0.040313,0.12,1,418.70
68784,0.45,5.3,-1.1,91.1,0.6986,-0.0258,-0.0400,-0.7139,-0.01,0.00,-0.13,43.242862,-0.040313,0.12,1,418.70
68797,0.45,5.3,-1.1,91.1,0.6986,-0.0256,-0.0401,-0.7139,0.01,0.05,-0.12,43.242862,-0.040313,0.12,1,418.70
68797,0.45,5.3,-1.1,91.1,0.6986,-0.0256,-0.0401,-0.7139,0.01,0.05,-0.12,43.242862,-0.040313,0.12,1,418.70
68797,0.44,5.3,-1.1,91.1,0.6986,-0.0256,-0.0401,-0.7139,0.01,0.05,-0.12,43.242862,-0.040313,0.12,1,418.70
68797,0.45,5.3,-1.1,91.1,0.6986,-0.0256,-0.0401,-0.7139,0.01,0.05,-0.12,43.242862,-0.040313,0.12,1,418.70
68797,0.44,5.3,-1.1,91.1,0.6986,-0.0256,-0.0401,-0.7139,0.01,0.05,-0.12,43.242862,-0.040313,0.12,1,418.70
68810,0.45,5.3,-1.1,91.1,0.6986,-0.0256,-0.0402,-0.7139,0.00,0.09,-0.09,43.242862,-0.040313,0.12,1,418.70
68810,0.45,5.3,-1.1,91.1,0.6986,-0.0256,-0.0402,-0.7139,0.00,0.09,-0.09,43.242862,-0.040313,0.12,1,418.70
68810,0.45,5.3,-1.1,91.1,0.6986,-0.0256,-0.0402,-0.7139,0.00,0.09,-0.09,43.242862,-0.040313,0.12,1,418.70
68810,0.45,5.3,-1.1,91.1,0.6986,-0.0256,-0.0402,-0.7139,0.00,0.09,-0.09,43.242862,-0.040313,0.12,1,418.70
68810,0.45,5.3,-1.1,91.1,0.6986,-0.0256,-0.0402,-0.7139,0.00,0.09,-0.09,43.242862,-0.040313,0.12,1,418.70
68823,0.44,5.3,-1.1,91.1,0.6986,-0.0256,-0.0402,-0.7139,-0.00,0.05,-0.05,43.242862,-0.040313,0.12,1,418.70
68823,0.44,5.3,-1.1,91.1,0.6986,-0.0256,-0.0402,-0.7139,-0.00,0.05,-0.05,43.242862,-0.040313,0.12,1,418.70
68823,0.44,5.3,-1.1,91.1,0.6986,-0.0256,-0.0402,-0.7139,-0.00,0.05,-0.05,43.242862,-0.040313,0.12,1,418.70
68823,0.45,5.3,-1.1,91.1,0.6986,-0.0256,-0.0402,-0.7139,-0.00,0.05,-0.05,43.242862,-0.040313,0.12,1,418.70
68823,0.45,5.3,-1.1,91.1,0.6986,-0.0256,-0.0402,-0.7139,-0.00,0.05,-0.05,43.242862,-0.040313,0.12,1,418.70
68835,0.44,5.3,-1.1,91.2,0.6985,-0.0256,-0.0401,-0.7139,-0.05,-0.02,-0.01,43.242862,-0.040313,0.12,1,418.70
68835,0.44,5.3,-1.1,91.2,0.6985,-0.0256,-0.0401,-0.7139,-0.05,-0.02,-0.01,43.242862,-0.040313,0.12,1,418.70
68835,0.45,5.3,-1.1,91.2,0.6985,-0.0256,-0.0401,-0.7139,-0.05,-0.02,-0.01,43.242862,-0.040313,0.12,1,418.70
68835,0.44,5.3,-1.1,91.2,0.6985,-0.0256,-0.0401,-0.7139,-0.05,-0.02,-0.01,43.242862,-0.040313,0.12,1,418.70
68835,0.45,5.3,-1.1,91.2,0.6985,-0.0256,-0.0401,-0.7139,-0.05,-0.02,-0.01,43.242862,-0.040313,0.12,1,418.70
68848,0.45,5.3,-1.1,91.2,0.6984,-0.0256,-0.0401,-0.7140,-0.07,-0.05,-0.01,43.242862,-0.040313,0.12,1,418.70
68848,0.45,5.3,-1.1,91.2,0.6984,-0.0256,-0.0401,-0.7140,-0.07,-0.05,-0.01,43.242862,-0.040313,0.12,1,418.70
68848,0.45,5.3,-1.1,91.2,0.6984,-0.0256,-0.0401,-0.7140,-0.07,-0.05,-0.01,43.242862,-0.040313,0.12,1,418.70
68848,0.45,5.3,-1.1,91.2,0.6984,-0.0256,-0.0401,-0.7140,-0.07,-0.05,-0.01,43.242862,-0.040313,0.12,1,418.70
68848,0.45,5.3,-1.1,91.2,0.6984,-0.0256,-0.0401,-0.7140,-0.07,-0.05,-0.01,43.242862,-0.040313,0.12,1,418.70
68861,0.44,5.3,-1.1,91.2,0.6984,-0.0257,-0.0401,-0.7141,-0.05,-0.09,0.00,43.242862,-0.040313,0.12,1,418.70
68861,0.45,5.3,-1.1,91.2,0.6984,-0.0257,-0.0401,-0.7141,-0.05,-0.09,0.00,43.242862,-0.040313,0.12,1,418.70
68861,0.45,5.3,-1.1,91.2,0.6984,-0.0257,-0.0401,-0.7141,-0.05,-0.09,0.00,43.242862,-0.040313,0.12,1,418.70
68861,0.45,5.3,-1.1,91.2,0.6984,-0.0257,-0.0401,-0.7141,-0.05,-0.09,0.00,43.242862,-0.040313,0.12,1,418.70
68861,0.45,5.3,-1.1,91.2,0.6984,-0.0257,-0.0401,-0.7141,-0.05,-0.09,0.00,43.242862,-0.040313,0.12,1,418.70
68874,0.45,5.2,-1.1,91.2,0.6984,-0.0256,-0.0399,-0.7141,-0.05,-0.03,-0.11,43.242862,-0.040313,0.12,1,418.70
68874,0.45,5.2,-1.1,91.2,0.6984,-0.0256,-0.0399,-0.7141,-0.05,-0.03,-0.11,43.242862,-0.040313,0.12,1,418.70
68874,0.45,5.2,-1.1,91.2,0.6984,-0.0256,-0.0399,-0.7141,-0.05,-0.03,-0.11,43.242862,-0.040313,0.12,1,418.70
68874,0.44,5.2,-1.1,91.2,0.6984,-0.0256,-0.0399,-0.7141,-0.05,-0.03,-0.11,43.242862,-0.040313,0.12,1,418.70
68874,0.44,5.2,-1.1,91.2,0.6984,-0.0256,-0.0399,-0.7141,-0.05,-0.03,-0.11,43.242862,-0.040313,0.12,1,418.70
68886,0.45,5.2,-1.1,91.2,0.6984,-0.0255,-0.0399,-0.7141,-0.05,0.00,-0.15,43.242862,-0.040313,0.12,1,418.70
68886,0.44,5.2,-1.1,91.2,0.6984,-0.0255,-0.0399,-0.7141,-0.05,0.00,-0.15,43.242862,-0.040313,0.12,1,418.70
68886,0.44,5.2,-1.1,91.2,0.6984,-0.0255,-0.0399,-0.7141,-0.05,0.00,-0.15,43.242862,-0.040313,0.12,1,418.70
68886,0.45,5.2,-1.1,91.2,0.6984,-0.0255,-0.0399,-0.7141,-0.05,0.00,-0.15,43.242862,-0.040313,0.12,1,418.70
68886,0.45,5.2,-1.1,91.2,0.6984,-0.0255,-0.0399,-0.7141,-0.05,0.00,-0.15,43.242862,-0.040313,0.12,1,418.70
68899,0.44,5.2,-1.1,91.2,0.6984,-0.0253,-0.0399,-0.7141,-0.05,0.03,-0.15,43.242862,-0.040313,0.12,1,418.70
68899,0.45,5.2,-1.1,91.2,0.6984,-0.0253,-0.0399,-0.7141,-0.05,0.03,-0.15,43.242862,-0.040313,0.12,1,418.70
68899,0.45,5.2,-1.1,91.2,0.6984,-0.0253,-0.0399,-0.7141,-0.05,0.03,-0.15,43.242862,-0.040313,0.12,1,418.70
68899,0.45,5.2,-1.1,91.2,0.6984,-0.0253,-0.0399,-0.7141,-0.05,0.03,-0.15,43.242862,-0.040313,0.12,1,418.70
68899,0.45,5.2,-1.1,91.2,0.6984,-0.0253,-0.0399,-0.7141,-0.05,0.03,-0.15,43.242862,-0.040313,0.12,1,418.70
68912,0.45,5.2,-1.2,91.2,0.6984,-0.0252,-0.0400,-0.7141,-0.03,0.02,-0.19,43.242862,-0.040313,0.12,1,418.70
68912,0.45,5.2,-1.2,91.2,0.6984,-0.0252,-0.0400,-0.7141,-0.03,0.02,-0.19,43.242862,-0.040313,0.12,1,418.70
68912,0.45,5.2,-1.2,91.2,0.6984,-0.0252,-0.0400,-0.7141,-0.03,0.02,-0.19,43.242862,-0.040313,0.12,1,418.70
68912,0.45,5.2,-1.2,91.2,0.6984,-0.0252,-0.0400,-0.7141,-0.03,0.02,-0.19,43.242862,-0.040313,0.12,1,418.70
68912,0.45,5.2,-1.2,91.2,0.6984,-0.0252,-0.0400,-0.7141,-0.03,0.02,-0.19,43.242862,-0.040313,0.12,1,418.70
68925,0.45,5.2,-1.2,91.2,0.6984,-0.0250,-0.0401,-0.7141,-0.01,0.02,-0.20,43.242862,-0.040313,0.12,1,418.79
68925,0.45,5.2,-1.2,91.2,0.6984,-0.0250,-0.0401,-0.7141,-0.01,0.02,-0.20,43.242862,-0.040313,0.12,1,418.79
68925,0.44,5.2,-1.2,91.2,0.6984,-0.0250,-0.0401,-0.7141,-0.01,0.02,-0.20,43.242862,-0.040313,0.12,1,418.79
68925,0.44,5.2,-1.2,91.2,0.6984,-0.0250,-0.0401,-0.7141,-0.01,0.02,-0.20,43.242862,-0.040313,0.12,1,418.79
68925,0.45,5.2,-1.2,91.2,0.6984,-0.0250,-0.0401,-0.7141,-0.01,0.02,-0.20,43.242862,-0.040313,0.12,1,418.79
68937,0.44,5.2,-1.2,91.2,0.6984,-0.0250,-0.0402,-0.7141,-0.00,0.02,-0.12,43.242862,-0.040313,0.12,1,418.79
68937,0.45,5.2,-1.2,91.2,0.6984,-0.0250,-0.0402,-0.7141,-0.00,0.02,-0.12,43.242862,-0.040313,0.12,1,418.79
68937,0.44,5.2,-1.2,91.2,0.6984,-0.0250,-0.0402,-0.7141,-0.00,0.02,-0.12,43.242862,-0.040313,0.12,1,418.79
68937,0.44,5.2,-1.2,91.2,0.6984,-0.0250,-0.0402,-0.7141,-0.00,0.02,-0.12,43.242862,-0.040313,0.12,1,418.79
68937,0.44,5.2,-1.2,91.2,0.6984,-0.0250,-0.0402,-0.7141,-0.00,0.02,-0.12,43.242862,-0.040313,0.12,1,418.79
68950,0.44,5.2,-1.2,91.2,0.6984,-0.0251,-0.0401,-0.7141,0.00,0.00,0.00,43.242862,-0.040313,0.12,1,418.79
68950,0.44,5.2,-1.2,91.2,0.6984,-0.0251,-0.0401,-0.7141,0.00,0.00,0.00,43.242862,-0.040313,0.12,1,418.79
68950,0.45,5.2,-1.2,91.2,0.6984,-0.0251,-0.0401,-0.7141,0.00,0.00,0.00,43.242862,-0.040313,0.12,1,418.79
68950,0.45,5.2,-1.2,91.2,0.6984,-0.0251,-0.0401,-0.7141,0.00,0.00,0.00,43.242862,-0.040313,0.12,1,418.79
68950,0.45,5.2,-1.2,91.2,0.6984,-0.0251,-0.0401,-0.7141,0.00,0.00,0.00,43.242862,-0.040313,0.12,1,418.79
68963,0.45,5.2,-1.2,91.2,0.6984,-0.0252,-0.0401,-0.7141,0.00,-0.02,0.02,43.242862,-0.040313,0.12,1,418.79
68963,0.44,5.2,-1.2,91.2,0.6984,-0.0252,-0.0401,-0.7141,0.00,-0.02,0.02,43.242862,-0.040313,0.12,1,418.79
68963,0.45,5.2,-1.2,91.2,0.6984,-0.0252,-0.0401,-0.7141,0.00,-0.02,0.02,43.242862,-0.040313,0.12,1,418.79
68963,0.45,5.2,-1.2,91.2,0.6984,-0.0252,-0.0401,-0.7141,0.00,-0.02,0.02,43.242862,-0.040313,0.12,1,418.79
68963,0.45,5.2,-1.2,91.2,0.6984,-0.0252,-0.0401,-0.7141,0.00,-0.02,0.02,43.242862,-0.040313,0.12,1,418.79
68976,0.45,5.2,-1.1,91.2,0.6983,-0.0253,-0.0396,-0.7142,-0.03,-0.18,-0.00,43.242862,-0.040313,0.12,1,418.79
68976,0.45,5.2,-1.1,91.2,0.6983,-0.0253,-0.0396,-0.7142,-0.03,-0.18,-0.00,43.242862,-0.040313,0.12,1,418.79
68976,0.45,5.2,-1.1,91.2,0.6983,-0.0253,-0.0396,-0.7142,-0.03,-0.18,-0.00,43.242862,-0.040313,0.12,1,418.79
68976,0.45,5.2,-1.1,91.2,0.6983,-0.0253,-0.0396,-0.7142,-0.03,-0.18,-0.00,43.242862,-0.040313,0.12,1,418.79
68976,0.44,5.2,-1.1,91.2,0.6983,-0.0253,-0.0396,-0.7142,-0.03,-0.18,-0.00,43.242862,-0.040313,0.12,1,418.79
68988,0.45,5.1,-1.1,91.2,0.6983,-0.0253,-0.0394,-0.7142,-0.03,-0.18,-0.00,43.242862,-0.040313,0.12,1,418.79
68988,0.45,5.1,-1.1,91.2,0.6983,-0.0253,-0.0394,-0.7142,-0.03,-0.18,-0.00,43.242862,-0.040313,0.12,1,418.79
68988,0.45,5.1,-1.1,91.2,0.6983,-0.0253,-0.0394,-0.7142,-0.03,-0.18,-0.00,43.242862,-0.040313,0.12,1,418.79
68988,0.45,5.1,-1.1,91.2,0.6983,-0.0253,-0.0394,-0.7142,-0.03,-0.18,-0.00,43.242862,-0.040313,0.12,1,418.79
68988,0.45,5.1,-1.1,91.2,0.6983,-0.0253,-0.0394,-0.7142,-0.03,-0.18,-0.00,43.242862,-0.040313,0.12,1,418.79
69001,0.45,5.1,-1.1,91.2,0.6983,-0.0252,-0.0393,-0.7142,-0.02,-0.13,-0.10,43.242862,-0.040313,0.12,1,418.79
69001,0.45,5.1,-1.1,91.2,0.6983,-0.0252,-0.0393,-0.7142,-0.02,-0.13,-0.10,43.242862,-0.040313,0.12,1,418.79
69001,0.45,5.1,-1.1,91.2,0.6983,-0.0252,-0.0393,-0.7142,-0.02,-0.13,-0.10,43.242862,-0.040313,0.12,1,418.79
69001,0.45,5.1,-1.1,91.2,0.6983,-0.0252,-0.0393,-0.7142,-0.02,-0.13,-0.10,43.242862,-0.040313,0.12,1,418.79
69001,0.45,5.1,-1.1,91.2,0.6983,-0.0252,-0.0393,-0.7142,-0.02,-0.13,-0.10,43.242862,-0.040313,0.12,1,418.79
69014,0.45,5.1,-1.1,91.2,0.6984,-0.0250,-0.0393,-0.7140,-0.00,0.12,-0.20,43.242862,-0.040313,0.12,1,418.79
69014,0.44,5.1,-1.1,91.2,0.6984,-0.0250,-0.0393,-0.7140,-0.00,0.12,-0.20,43.242862,-0.040313,0.12,1,418.79
69014,0.45,5.1,-1.1,91.2,0.6984,-0.0250,-0.0393,-0.7140,-0.00,0.12,-0.20,43.242862,-0.040313,0.12,1,418.79
69014,0.45,5.1,-1.1,91.2,0.6984,-0.0250,-0.0393,-0.7140,-0.00,0.12,-0.20,43.242862,-0.040313,0.12,1,418.79
69014,0.45,5.1,-1.1,91.2,0.6984,-0.0250,-0.0393,-0.7140,-0.00,0.12,-0.20,43.242862,-0.040313,0.12,1,418.79
69027,0.45,5.1,-1.1,91.1,0.6986,-0.0250,-0.0393,-0.7139,-0.02,0.15,-0.20,43.242862,-0.040313,0.12,1,418.79
69027,0.44,5.1,-1.1,91.1,0.6986,-0.0250,-0.0393,-0.7139,-0.02,0.15,-0.20,43.242862,-0.040313,0.12,1,418.79
69027,0.44,5.1,-1.1,91.1,0.6986,-0.0250,-0.0393,-0.7139,-0.02,0.15,-0.20,43.242862,-0.040313,0.12,1,418.79
69027,0.45,5.1,-1.1,91.1,0.6986,-0.0250,-0.0393,-0.7139,-0.02,0.15,-0.20,43.242862,-0.040313,0.12,1,418.79
69027,0.45,5.1,-1.1,91.1,0.6986,-0.0250,-0.0393,-0.7139,-0.02,0.15,-0.20,43.242862,-0.040313,0.12,1,418.79
69039,0.44,5.1,-1.1,91.1,0.6986,-0.0250,-0.0393,-0.7139,-0.02,0.15,-0.20,43.242862,-0.040313,0.12,1,418.79
69039,0.45,5.1,-1.1,91.1,0.6986,-0.0250,-0.0393,-0.7139,-0.02,0.15,-0.20,43.242862,-0.040313,0.12,1,418.79
69039,0.45,5.1,-1.1,91.1,0.6986,-0.0250,-0.0393,-0.7139,-0.02,0.15,-0.20,43.242862,-0.040313,0.12,1,418.79
69039,0.45,5.1,-1.1,91.1,0.6986,-0.0250,-0.0393,-0.7139,-0.02,0.15,-0.20,43.242862,-0.040313,0.12,1,418.79
69039,0.45,5.1,-1.1,91.1,0.6986,-0.0250,-0.0393,-0.7139,-0.02,0.15,-0.20,43.242862,-0.040313,0.12,1,418.79
69052,0.45,5.1,-1.1,91.2,0.6984,-0.0251,-0.0392,-0.7141,-0.07,0.07,-0.15,43.242862,-0.040313,0.12,1,418.79
69052,0.45,5.1,-1.1,91.2,0.6984,-0.0251,-0.0392,-0.7141,-0.07,0.07,-0.15,43.242862,-0.040313,0.12,1,418.79
69052,0.45,5.1,-1.1,91.2,0.6984,-0.0251,-0.0392,-0.7141,-0.07,0.07,-0.15,43.242862,-0.040313,0.12,1,418.79
69052,0.44,5.1,-1.1,91.2,0.6984,-0.0251,-0.0392,-0.7141,-0.07,0.07,-0.15,43.242862,-0.040313,0.12,1,418.79
69052,0.45,5.1,-1.1,91.2,0.6984,-0.0251,-0.0392,-0.7141,-0.07,0.07,-0.15,43.242862,-0.040313,0.12,1,418.79
69065,0.45,5.1,-1.1,91.2,0.6984,-0.0253,-0.0389,-0.7141,-0.05,0.09,-0.17,43.242862,-0.040313,0.12,1,418.79
69065,0.44,5.1,-1.1,91.2,0.6984,-0.0253,-0.0389,-0.7141,-0.05,0.09,-0.17,43.242862,-0.040313,0.12,1,418.79
69065,0.44,5.1,-1.1,91.2,0.6984,-0.0253,-0.0389,-0.7141,-0.05,0.09,-0.17,43.242862,-0.040313,0.12,1,418.79
69065,0.45,5.1,-1.1,91.2,0.6984,-0.0253,-0.0389,-0.7141,-0.05,0.09,-0.17,43.242862,-0.040313,0.12,1,418.79
69065,0.45,5.1,-1.1,91.2,0.6984,-0.0253,-0.0389,-0.7141,-0.05,0.09,-0.17,43.242862,-0.040313,0.12,1,418.79
69078,0.44,5.1,-1.1,91.2,0.6984,-0.0254,-0.0388,-0.7141,-0.07,0.07,-0.12,43.242862,-0.040313,0.12,1,418.79
69078,0.45,5.1,-1.1,91.2,0.6984,-0.0254,-0.0388,-0.7141,-0.07,0.07,-0.12,43.242862,-0.040313,0.12,1,418.79
69078,0.44,5.1,-1.1,91.2,0.6984,-0.0254,-0.0388,-0.7141,-0.07,0.07,-0.12,43.242862,-0.040313,0.12,1,418.79
69078,0.44,5.1,-1.1,91.2,0.6984,-0.0254,-0.0388,-0.7141,-0.07,0.07,-0.12,43.242862,-0.040313,0.12,1,418.79
69078,0.44,5.1,-1.1,91.2,0.6984,-0.0254,-0.0388,-0.7141,-0.07,0.07,-0.12,43.242862,-0.040313,0.12,1,418.79
69090,0.45,5.1,-1.1,91.2,0.6984,-0.0254,-0.0388,-0.7141,-0.07,0.07,-0.12,43.242862,-0.040313,0.13,1,418.79
69090,0.44,5.1,-1.1,91.2,0.6984,-0.0254,-0.0388,-0.7141,-0.07,0.07,-0.12,43.242862,-0.040313,0.13,1,418.79
69090,0.45,5.1,-1.1,91.2,0.6984,-0.0254,-0.0388,-0.7141,-0.07,0.07,-0.12,43.242862,-0.040313,0.13,1,418.79
69090,0.44,5.1,-1.1,91.2,0.6984,-0.0254,-0.0388,-0.7141,-0.07,0.07,-0.12,43.242862,-0.040313,0.13,1,418.79
69090,0.44,5.1,-1.1,91.2,0.6984,-0.0254,-0.0388,-0.7141,-0.07,0.07,-0.12,43.242862,-0.040313,0.13,1,418.79
69103,0.44,5.1,-1.1,91.2,0.6984,-0.0255,-0.0387,-0.7141,-0.07,0.05,-0.11,43.242862,-0.040313,0.13,1,418.79
69103,0.44,5.1,-1.1,91.2,0.6984,-0.0255,-0.0387,-0.7141,-0.07,0.05,-0.11,43.242862,-0.040313,0.13,1,418.79
69103,0.45,5.1,-1.1,91.2,0.6984,-0.0255,-0.0387,-0.7141,-0.07,0.05,-0.11,43.242862,-0.040313,0.13,1,418.79
69103,0.45,5.1,-1.1,91.2,0.6984,-0.0255,-0.0387,-0.7141,-0.07,0.05,-0.11,43.242862,-0.040313,0.13,1,418.79
69103,0.44,5.1,-1.1,91.2,0.6984,-0.0255,-0.0387,-0.7141,-0.07,0.05,-0.11,43.242862,-0.040313,0.13,1,418.79
69116,0.45,5.1,-1.1,91.2,0.6983,-0.0256,-0.0390,-0.7142,-0.07,0.00,0.01,43.242862,-0.040313,0.13,1,418.79
69116,0.45,5.1,-1.1,91.2,0.6983,-0.0256,-0.0390,-0.7142,-0.07,0.00,0.01,43.242862,-0.040313,0.13,1,418.79
69116,0.45,5.1,-1.1,91.2,0.6983,-0.0256,-0.0390,-0.7142,-0.07,0.00,0.01,43.242862,-0.040313,0.13,1,418.79
69116,0.45,5.1,-1.1,91.2,0.6983,-0.0256,-0.0390,-0.7142,-0.07,0.00,0.01,43.242862,-0.040313,0.13,1,418.79
69116,0.44,5.1,-1.1,91.2,0.6983,-0.0256,-0.0390,-0.7142,-0.07,0.00,0.01,43.242862,-0.040313,0.13,1,418.79
69128,0.44,5.1,-1.1,91.2,0.6982,-0.0255,-0.0390,-0.7143,-0.09,-0.02,0.07,43.242862,-0.040313,0.13,1,418.79
69128,0.45,5.1,-1.1,91.2,0.6982,-0.0255,-0.0390,-0.7143,-0.09,-0.02,0.07,43.242862,-0.040313,0.13,1,418.79
69128,0.44,5.1,-1.1,91.2,0.6982,-0.0255,-0.0390,-0.7143,-0.09,-0.02,0.07,43.242862,-0.040313,0.13,1,418.79
69128,0.45,5.1,-1.1,91.2,0.6982,-0.0255,-0.0390,-0.7143,-0.09,-0.02,0.07,43.242862,-0.040313,0.13,1,418.79
69128,0.44,5.1,-1.1,91.2,0.6982,-0.0255,-0.0390,-0.7143,-0.09,-0.02,0.07,43.242862,-0.040313,0.13,1,418.79
69141,0.44,5.1,-1.1,91.2,0.6982,-0.0255,-0.0391,-0.7143,-0.07,-0.03,0.00,43.242862,-0.040313,0.15,1,418.79
69141,0.44,5.1,-1.1,91.2,0.6982,-0.0255,-0.0391,-0.7143,-0.07,-0.03,0.00,43.242862,-0.040313,0.15,1,418.79
69141,0.45,5.1,-1.1,91.2,0.6982,-0.0255,-0.0391,-0.7143,-0.07,-0.03,0.00,43.242862,-0.040313,0.15,1,418.79
69141,0.45,5.1,-1.1,91.2,0.6982,-0.0255,-0.0391,-0.7143,-0.07,-0.03,0.00,43.242862,-0.040313,0.15,1,418.79
69141,0.45,5.1,-1.1,91.2,0.6982,-0.0255,-0.0391,-0.7143,-0.07,-0.03,0.00,43.242862,-0.040313,0.15,1,418.79
69154,0.44,5.1,-1.1,91.2,0.6982,-0.0255,-0.0391,-0.7143,-0.03,-0.03,0.00,43.242862,-0.040313,0.15,1,418.79
69154,0.45,5.1,-1.1,91.2,0.6982,-0.0255,-0.0391,-0.7143,-0.03,-0.03,0.00,43.242862,-0.040313,0.15,1,418.79
69154,0.45,5.1,-1.1,91.2,0.6982,-0.0255,-0.0391,-0.7143,-0.03,-0.03,0.00,43.242862,-0.040313,0.15,1,418.79
69154,0.45,5.1,-1.1,91.2,0.6982,-0.0255,-0.0391,-0.7143,-0.03,-0.03,0.00,43.242862,-0.040313,0.15,1,418.79
69154,0.45,5.1,-1.1,91.2,0.6982,-0.0255,-0.0391,-0.7143,-0.03,-0.03,0.00,43.242862,-0.040313,0.15,1,418.79
69167,0.45,5.1,-1.1,91.2,0.6982,-0.0255,-0.0390,-0.7143,-0.05,-0.10,-0.01,43.242862,-0.040313,0.15,1,418.79
69167,0.44,5.1,-1.1,91.2,0.6982,-0.0255,-0.0390,-0.7143,-0.05,-0.10,-0.01,43.242862,-0.040313,0.15,1,418.79
69167,0.45,5.1,-1.1,91.2,0.6982,-0.0255,-0.0390,-0.7143,-0.05,-0.10,-0.01,43.242862,-0.040313,0.15,1,418.79
69167,0.44,5.1,-1.1,91.2,0.6982,-0.0255,-0.0390,-0.7143,-0.05,-0.10,-0.01,43.242862,-0.040313,0.15,1,418.79
69167,0.45,5.1,-1.1,91.2,0.6982,-0.0255,-0.0390,-0.7143,-0.05,-0.10,-0.01,43.242862,-0.040313,0.15,1,418.79
69180,0.45,5.1,-1.1,91.2,0.6982,-0.0254,-0.0390,-0.7143,-0.03,-0.10,-0.01,43.242862,-0.040313,0.15,1,418.79
69180,0.45,5.1,-1.1,91.2,0.6982,-0.0254,-0.0390,-0.7143,-0.03,-0.10,-0.01,43.242862,-0.040313,0.15,1,418.79
69180,0.44,5.1,-1.1,91.2,0.6982,-0.0254,-0.0390,-0.7143,-0.03,-0.10,-0.01,43.242862,-0.040313,0.15,1,418.79
69180,0.45,5.1,-1.1,91.2,0.6982,-0.0254,-0.0390,-0.7143,-0.03,-0.10,-0.01,43.242862,-0.040313,0.15,1,418.79
69180,0.45,5.1,-1.1,91.2,0.6982,-0.0254,-0.0390,-0.7143,-0.03,-0.10,-0.01,43.242862,-0.040313,0.15,1,418.79
69192,0.45,5.1,-1.1,91.2,0.6982,-0.0253,-0.0389,-0.7143,-0.05,-0.15,-0.03,43.242862,-0.040313,0.15,1,418.79
69192,0.44,5.1,-1.1,91.2,0.6982,-0.0253,-0.0389,-0.7143,-0.05,-0.15,-0.03,43.242862,-0.040313,0.15,1,418.79
69192,0.45,5.1,-1.1,91.2,0.6982,-0.0253,-0.0389,-0.7143,-0.05,-0.15,-0.03,43.242862,-0.040313,0.15,1,418.79
69192,0.45,5.1,-1.1,91.2,0.6982,-0.0253,-0.0389,-0.7143,-0.05,-0.15,-0.03,43.242862,-0.040313,0.15,1,418.79
69192,0.44,5.1,-1.1,91.2,0.6982,-0.0253,-0.0389,-0.7143,-0.05,-0.15,-0.03,43.242862,-0.040313,0.15,1,418.79
69205,0.45,5.1,-1.1,91.2,0.6983,-0.0252,-0.0388,-0.7142,-0.05,-0.12,-0.03,43.242862,-0.040313,0.15,1,418.79
69205,0.45,5.1,-1.1,91.2,0.6983,-0.0252,-0.0388,-0.7142,-0.05,-0.12,-0.03,43.242862,-0.040313,0.15,1,418.79
69205,0.45,5.1,-1.1,91.2,0.6983,-0.0252,-0.0388,-0.7142,-0.05,-0.12,-0.03,43.242862,-0.040313,0.15,1,418.79
69205,0.44,5.1,-1.1,91.2,0.6983,-0.0252,-0.0388,-0.7142,-0.05,-0.12,-0.03,43.242862,-0.040313,0.15,1,418.79
69205,0.44,5.1,-1.1,91.2,0.6983,-0.0252,-0.0388,-0.7142,-0.05,-0.12,-0.03,43.242862,-0.040313,0.15,1,418.79
69218,0.44,5.1,-1.1,91.2,0.6985,-0.0252,-0.0388,-0.7140,-0.03,-0.02,-0.00,43.242862,-0.040313,0.15,1,418.79
69218,0.44,5.1,-1.1,91.2,0.6985,-0.0252,-0.0388,-0.7140,-0.03,-0.02,-0.00,43.242862,-0.040313,0.15,1,418.79
69218,0.45,5.1,-1.1,91.2,0.6985,-0.0252,-0.0388,-0.7140,-0.03,-0.02,-0.00,43.242862,-0.040313,0.15,1,418.79
69218,0.44,5.1,-1.1,91.2,0.6985,-0.0252,-0.0388,-0.7140,-0.03,-0.02,-0.00,43.242862,-0.040313,0.15,1,418.79
69218,0.44,5.1,-1.1,91.2,0.6985,-0.0252,-0.0388,-0.7140,-0.03,-0.02,-0.00,43.242862,-0.040313,0.15,1,418.79
69231,0.45,5.1,-1.1,91.1,0.6987,-0.0252,-0.0386,-0.7138,-0.02,0.00,-0.07,43.242862,-0.040313,0.15,1,418.79
69231,0.44,5.1,-1.1,91.1,0.6987,-0.0252,-0.0386,-0.7138,-0.02,0.00,-0.07,43.242862,-0.040313,0.15,1,418.79
69231,0.45,5.1,-1.1,91.1,0.6987,-0.0252,-0.0386,-0.7138,-0.02,0.00,-0.07,43.242862,-0.040313,0.15,1,418.79
69231,0.45,5.1,-1.1,91.1,0.6987,-0.0252,-0.0386,-0.7138,-0.02,0.00,-0.07,43.242862,-0.040313,0.15,1,418.79
69231,0.45,5.1,-1.1,91.1,0.6987,-0.0252,-0.0386,-0.7138,-0.02,0.00,-0.07,43.242862,-0.040313,0.15,1,418.79
69243,0.44,5.1,-1.1,91.1,0.6989,-0.0250,-0.0386,-0.7137,-0.00,0.01,-0.07,43.242862,-0.040313,0.15,1,418.79
69243,0.45,5.1,-1.1,91.1,0.6989,-0.0250,-0.0386,-0.7137,-0.00,0.01,-0.07,43.242862,-0.040313,0.15,1,418.79
69243,0.45,5.1,-1.1,91.1,0.6989,-0.0250,-0.0386,-0.7137,-0.00,0.01,-0.07,43.242862,-0.040313,0.15,1,418.79
69243,0.45,5.1,-1.1,91.1,0.6989,-0.0250,-0.0386,-0.7137,-0.00,0.01,-0.07,43.242862,-0.040313,0.15,1,418.79
69243,0.45,5.1,-1.1,91.1,0.6989,-0.0250,-0.0386,-0.7137,-0.00,0.01,-0.07,43.242862,-0.040313,0.15,1,418.79
69256,0.45,5.1,-1.1,91.1,0.6991,-0.0250,-0.0385,-0.7134,-0.01,0.10,-0.15,43.242862,-0.040313,0.15,1,418.79
69256,0.45,5.1,-1.1,91.1,0.6991,-0.0250,-0.0385,-0.7134,-0.01,0.10,-0.15,43.242862,-0.040313,0.15,1,418.79
69256,0.45,5.1,-1.1,91.1,0.6991,-0.0250,-0.0385,-0.7134,-0.01,0.10,-0.15,43.242862,-0.040313,0.15,1,418.79
69256,0.45,5.1,-1.1,91.1,0.6991,-0.0250,-0.0385,-0.7134,-0.01,0.10,-0.15,43.242862,-0.040313,0.15,1,418.79
69256,0.45,5.1,-1.1,91.1,0.6991,-0.0250,-0.0385,-0.7134,-0.01,0.10,-0.15,43.242862,-0.040313,0.15,1,418.79
69269,0.45,5.1,-1.1,91.1,0.6992,-0.0249,-0.0385,-0.7133,-0.00,0.11,-0.12,43.242862,-0.040313,0.15,1,418.79
69269,0.45,5.1,-1.1,91.1,0.6992,-0.0249,-0.0385,-0.7133,-0.00,0.11,-0.12,43.242862,-0.040313,0.15,1,418.79
69269,0.45,5.1,-1.1,91.1,0.6992,-0.0249,-0.0385,-0.7133,-0.00,0.11,-0.12,43.242862,-0.040313,0.15,1,418.79
69269,0.45,5.1,-1.1,91.1,0.6992,-0.0249,-0.0385,-0.7133,-0.00,0.11,-0.12,43.242862,-0.040313,0.15,1,418.79
69269,0.45,5.1,-1.1,91.1,0.6992,-0.0249,-0.0385,-0.7133,-0.00,0.11,-0.12,43.242862,-0.040313,0.15,1,418.79
69282,0.45,5.1,-1.1,91.1,0.6993,-0.0249,-0.0385,-0.7132,0.00,0.11,-0.11,43.242862,-0.040313,0.15,1,418.79
69282,0.45,5.1,-1.1,91.1,0.6993,-0.0249,-0.0385,-0.7132,0.00,0.11,-0.11,43.242862,-0.040313,0.15,1,418.79
69282,0.45,5.1,-1.1,91.1,0.6993,-0.0249,-0.0385,-0.7132,0.00,0.11,-0.11,43.242862,-0.040313,0.15,1,418.79
69282,0.45,5.1,-1.1,91.1,0.6993,-0.0249,-0.0385,-0.7132,0.00,0.11,-0.11,43.242862,-0.040313,0.15,1,418.79
69282,0.45,5.1,-1.1,91.1,0.6993,-0.0249,-0.0385,-0.7132,0.00,0.11,-0.11,43.242862,-0.040313,0.15,1,418.79
69294,0.45,5.1,-1.1,91.0,0.6994,-0.0247,-0.0385,-0.7131,-0.00,0.11,-0.15,43.242862,-0.040313,0.15,1,418.79
69294,0.45,5.1,-1.1,91.0,0.6994,-0.0247,-0.0385,-0.7131,-0.00,0.11,-0.15,43.242862,-0.040313,0.15,1,418.79
69294,0.45,5.1,-1.1,91.0,0.6994,-0.0247,-0.0385,-0.7131,-0.00,0.11,-0.15,43.242862,-0.040313,0.15,1,418.79
69294,0.45,5.1,-1.1,91.0,0.6994,-0.0247,-0.0385,-0.7131,-0.00,0.11,-0.15,43.242862,-0.040313,0.15,1,418.79
69294,0.45,5.1,-1.1,91.0,0.6994,-0.0247,-0.0385,-0.7131,-0.00,0.11,-0.15,43.242862,-0.040313,0.15,1,418.79
69307,0.45,5.1,-1.1,91.0,0.6994,-0.0247,-0.0386,-0.7131,-0.07,0.03,-0.13,43.242862,-0.040313,0.15,1,418.79
69307,0.45,5.1,-1.1,91.0,0.6994,-0.0247,-0.0386,-0.7131,-0.07,0.03,-0.13,43.242862,-0.040313,0.15,1,418.79
69307,0.45,5.1,-1.1,91.0,0.6994,-0.0247,-0.0386,-0.7131,-0.07,0.03,-0.13,43.242862,-0.040313,0.15,1,418.79
69307,0.45,5.1,-1.1,91.0,0.6994,-0.0247,-0.0386,-0.7131,-0.07,0.03,-0.13,43.242862,-0.040313,0.15,1,418.79
69307,0.45,5.1,-1.1,91.0,0.6994,-0.0247,-0.0386,-0.7131,-0.07,0.03,-0.13,43.242862,-0.040313,0.15,1,418.79
69320,0.45,5.0,-1.1,91.0,0.6994,-0.0245,-0.0386,-0.7131,-0.11,-0.00,-0.12,43.242862,-0.040313,0.15,1,418.79
69320,0.45,5.0,-1.1,91.0,0.6994,-0.0245,-0.0386,-0.7131,-0.11,-0.00,-0.12,43.242862,-0.040313,0.15,1,418.79
69320,0.45,5.0,-1.1,91.0,0.6994,-0.0245,-0.0386,-0.7131,-0.11,-0.00,-0.12,43.242862,-0.040313,0.15,1,418.79
69320,0.45,5.0,-1.1,91.0,0.6994,-0.0245,-0.0386,-0.7131,-0.11,-0.00,-0.12,43.242862,-0.040313,0.15,1,418.79
69320,0.45,5.0,-1.1,91.0,0.6994,-0.0245,-0.0386,-0.7131,-0.11,-0.00,-0.12,43.242862,-0.040313,0.15,1,418.79
69333,0.45,5.0,-1.1,91.0,0.6995,-0.0243,-0.0388,-0.7130,-0.10,-0.01,-0.23,43.242862,-0.040313,0.15,1,418.79
69333,0.45,5.0,-1.1,91.0,0.6995,-0.0243,-0.0388,-0.7130,-0.10,-0.01,-0.23,43.242862,-0.040313,0.15,1,418.79
69333,0.45,5.0,-1.1,91.0,0.6995,-0.0243,-0.0388,-0.7130,-0.10,-0.01,-0.23,43.242862,-0.040313,0.15,1,418.79
69333,0.45,5.0,-1.1,91.0,0.6995,-0.0243,-0.0388,-0.7130,-0.10,-0.01,-0.23,43.242862,-0.040313,0.15,1,418.79
69333,0.45,5.0,-1.1,91.0,0.6995,-0.0243,-0.0388,-0.7130,-0.10,-0.01,-0.23,43.242862,-0.040313,0.15,1,418.79
69345,0.45,5.0,-1.2,91.0,0.6998,-0.0239,-0.0390,-0.7128,-0.10,0.00,-0.37,43.242862,-0.040313,0.17,1,418.79
69345,0.45,5.0,-1.2,91.0,0.6998,-0.0239,-0.0390,-0.7128,-0.10,0.00,-0.37,43.242862,-0.040313,0.17,1,418.79
69345,0.45,5.0,-1.2,91.0,0.6998,-0.0239,-0.0390,-0.7128,-0.10,0.00,-0.37,43.242862,-0.040313,0.17,1,418.79
69345,0.45,5.0,-1.2,91.0,0.6998,-0.0239,-0.0390,-0.7128,-0.10,0.00,-0.37,43.242862,-0.040313,0.17,1,418.79
69345,0.45,5.0,-1.2,91.0,0.6998,-0.0239,-0.0390,-0.7128,-0.10,0.00,-0.37,43.242862,-0.040313,0.17,1,418.79
69358,0.45,5.0,-1.3,90.8,0.7007,-0.0232,-0.0399,-0.7119,-0.09,0.33,-0.57,43.242862,-0.040313,0.17,1,418.79
69358,0.45,5.0,-1.3,90.8,0.7007,-0.0232,-0.0399,-0.7119,-0.09,0.33,-0.57,43.242862,-0.040313,0.17,1,418.79
69358,0.45,5.0,-1.3,90.8,0.7007,-0.0232,-0.0399,-0.7119,-0.09,0.33,-0.57,43.242862,-0.040313,0.17,1,418.79
69358,0.45,5.0,-1.3,90.8,0.7007,-0.0232,-0.0399,-0.7119,-0.09,0.33,-0.57,43.242862,-0.040313,0.17,1,418.79
69358,0.45,5.0,-1.3,90.8,0.7007,-0.0232,-0.0399,-0.7119,-0.09,0.33,-0.57,43.242862,-0.040313,0.17,1,418.79
69371,0.45,5.1,-1.4,90.8,0.7011,-0.0229,-0.0405,-0.7114,0.05,0.41,-0.61,43.242862,-0.040313,0.17,1,418.79
69371,0.45,5.1,-1.4,90.8,0.7011,-0.0229,-0.0405,-0.7114,0.05,0.41,-0.61,43.242862,-0.040313,0.17,1,418.79
69371,0.45,5.1,-1.4,90.8,0.7011,-0.0229,-0.0405,-0.7114,0.05,0.41,-0.61,43.242862,-0.040313,0.17,1,418.79
69371,0.45,5.1,-1.4,90.8,0.7011,-0.0229,-0.0405,-0.7114,0.05,0.41,-0.61,43.242862,-0.040313,0.17,1,418.79
69371,0.45,5.1,-1.4,90.8,0.7011,-0.0229,-0.0405,-0.7114,0.05,0.41,-0.61,43.242862,-0.040313,0.17,1,418.79
69384,0.45,5.1,-1.5,90.7,0.7015,-0.0226,-0.0410,-0.7111,0.05,0.63,-0.75,43.242862,-0.040311,0.17,1,418.79
69384,0.45,5.1,-1.5,90.7,0.7015,-0.0226,-0.0410,-0.7111,0.05,0.63,-0.75,43.242862,-0.040311,0.17,1,418.79
69384,0.45,5.1,-1.5,90.7,0.7015,-0.0226,-0.0410,-0.7111,0.05,0.63,-0.75,43.242862,-0.040311,0.17,1,418.79
69384,0.45,5.1,-1.5,90.7,0.7015,-0.0226,-0.0410,-0.7111,0.05,0.63,-0.75,43.242862,-0.040311,0.17,1,418.79
69384,0.45,5.1,-1.5,90.7,0.7015,-0.0226,-0.0410,-0.7111,0.05,0.63,-0.75,43.242862,-0.040311,0.17,1,418.79
69396,0.45,5.1,-1.5,90.6,0.7017,-0.0225,-0.0415,-0.7108,-0.05,0.75,-0.83,43.242862,-0.040311,0.20,1,418.79
69396,0.45,5.1,-1.5,90.6,0.7017,-0.0225,-0.0415,-0.7108,-0.05,0.75,-0.83,43.242862,-0.040311,0.20,1,418.79
69396,0.45,5.1,-1.5,90.6,0.7017,-0.0225,-0.0415,-0.7108,-0.05,0.75,-0.83,43.242862,-0.040311,0.20,1,418.79
69396,0.45,5.1,-1.5,90.6,0.7017,-0.0225,-0.0415,-0.7108,-0.05,0.75,-0.83,43.242862,-0.040311,0.20,1,418.79
69396,0.45,5.1,-1.5,90.6,0.7017,-0.0225,-0.0415,-0.7108,-0.05,0.75,-0.83,43.242862,-0.040311,0.20,1,418.79
69409,0.45,5.1,-1.5,90.6,0.7019,-0.0229,-0.0419,-0.7106,0.12,0.18,-0.52,43.242862,-0.040311,0.20,1,418.79
69409,0.45,5.1,-1.5,90.6,0.7019,-0.0229,-0.0419,-0.7106,0.12,0.18,-0.52,43.242862,-0.040311,0.20,1,418.79
69409,0.45,5.1,-1.5,90.6,0.7019,-0.0229,-0.0419,-0.7106,0.12,0.18,-0.52,43.242862,-0.040311,0.20,1,418.79
69409,0.45,5.1,-1.5,90.6,0.7019,-0.0229,-0.0419,-0.7106,0.12,0.18,-0.52,43.242862,-0.040311,0.20,1,418.79
69409,0.45,5.1,-1.5,90.6,0.7019,-0.0229,-0.0419,-0.7106,0.12,0.18,-0.52,43.242862,-0.040311,0.20,1,418.79
69422,0.45,5.2,-1.5,90.6,0.7020,-0.0232,-0.0422,-0.7104,-0.05,0.36,-0.45,43.242862,-0.040311,0.20,1,418.79
69422,0.45,5.2,-1.5,90.6,0.7020,-0.0232,-0.0422,-0.7104,-0.05,0.36,-0.45,43.242862,-0.040311,0.20,1,418.79
69422,0.45,5.2,-1.5,90.6,0.7020,-0.0232,-0.0422,-0.7104,-0.05,0.36,-0.45,43.242862,-0.040311,0.20,1,418.79
69422,0.45,5.2,-1.5,90.6,0.7020,-0.0232,-0.0422,-0.7104,-0.05,0.36,-0.45,43.242862,-0.040311,0.20,1,418.79
69422,0.45,5.2,-1.5,90.6,0.7020,-0.0232,-0.0422,-0.7104,-0.05,0.36,-0.45,43.242862,-0.040311,0.20,1,418.79
69434,0.45,5.3,-1.5,90.5,0.7024,-0.0241,-0.0427,-0.7100,0.00,0.65,-0.23,43.242862,-0.040311,0.20,1,418.79
69434,0.45,5.3,-1.5,90.5,0.7024,-0.0241,-0.0427,-0.7100,0.00,0.65,-0.23,43.242862,-0.040311,0.20,1,418.79
69434,0.45,5.3,-1.5,90.5,0.7024,-0.0241,-0.0427,-0.7100,0.00,0.65,-0.23,43.242862,-0.040311,0.20,1,418.79
69434,0.45,5.3,-1.5,90.5,0.7024,-0.0241,-0.0427,-0.7100,0.00,0.65,-0.23,43.242862,-0.040311,0.20,1,418.79
69434,0.45,5.3,-1.5,90.5,0.7024,-0.0241,-0.0427,-0.7100,0.00,0.65,-0.23,43.242862,-0.040311,0.20,1,418.79
69447,0.45,5.4,-1.5,90.5,0.7024,-0.0247,-0.0429,-0.7099,0.05,0.55,0.00,43.242862,-0.040311,0.23,1,418.79
69447,0.45,5.4,-1.5,90.5,0.7024,-0.0247,-0.0429,-0.7099,0.05,0.55,0.00,43.242862,-0.040311,0.23,1,418.79
69447,0.45,5.4,-1.5,90.5,0.7024,-0.0247,-0.0429,-0.7099,0.05,0.55,0.00,43.242862,-0.040311,0.23,1,418.79
69447,0.45,5.4,-1.5,90.5,0.7024,-0.0247,-0.0429,-0.7099,0.05,0.55,0.00,43.242862,-0.040311,0.23,1,418.79
69447,0.45,5.4,-1.5,90.5,0.7024,-0.0247,-0.0429,-0.7099,0.05,0.55,0.00,43.242862,-0.040311,0.23,1,418.79
69460,0.45,5.5,-1.4,90.6,0.7023,-0.0253,-0.0429,-0.7101,0.00,0.45,0.11,43.242862,-0.040311,0.23,1,418.79
69460,0.45,5.5,-1.4,90.6,0.7023,-0.0253,-0.0429,-0.7101,0.00,0.45,0.11,43.242862,-0.040311,0.23,1,418.79
69460,0.45,5.5,-1.4,90.6,0.7023,-0.0253,-0.0429,-0.7101,0.00,0.45,0.11,43.242862,-0.040311,0.23,1,418.79
69460,0.44,5.5,-1.4,90.6,0.7023,-0.0253,-0.0429,-0.7101,0.00,0.45,0.11,43.242862,-0.040311,0.23,1,418.79
69460,0.45,5.5,-1.4,90.6,0.7023,-0.0253,-0.0429,-0.7101,0.00,0.45,0.11,43.242862,-0.040311,0.23,1,418.79
69473,0.44,5.5,-1.3,90.6,0.7020,-0.0259,-0.0428,-0.7103,-0.05,0.35,0.19,43.242862,-0.040311,0.23,1,418.79
69473,0.44,5.5,-1.3,90.6,0.7020,-0.0259,-0.0428,-0.7103,-0.05,0.35,0.19,43.242862,-0.040311,0.23,1,418.79
69473,0.44,5.5,-1.3,90.6,0.7020,-0.0259,-0.0428,-0.7103,-0.05,0.35,0.19,43.242862,-0.040311,0.23,1,418.79
69473,0.44,5.5,-1.3,90.6,0.7020,-0.0259,-0.0428,-0.7103,-0.05,0.35,0.19,43.242862,-0.040311,0.23,1,418.79
69473,0.44,5.5,-1.3,90.6,0.7020,-0.0259,-0.0428,-0.7103,-0.05,0.35,0.19,43.242862,-0.040311,0.23,1,418.79
69486,0.44,5.5,-1.2,90.6,0.7016,-0.0269,-0.0424,-0.7107,-0.20,0.12,0.40,43.242862,-0.040311,0.23,1,418.79
69486,0.44,5.5,-1.2,90.6,0.7016,-0.0269,-0.0424,-0.7107,-0.20,0.12,0.40,43.242862,-0.040311,0.23,1,418.79
69486,0.44,5.5,-1.2,90.6,0.7016,-0.0269,-0.0424,-0.7107,-0.20,0.12,0.40,43.242862,-0.040311,0.23,1,418.79
69486,0.45,5.5,-1.2,90.6,0.7016,-0.0269,-0.0424,-0.7107,-0.20,0.12,0.40,43.242862,-0.040311,0.23,1,418.79
69486,0.44,5.5,-1.2,90.6,0.7016,-0.0269,-0.0424,-0.7107,-0.20,0.12,0.40,43.242862,-0.040311,0.23,1,418.79
69498,0.44,5.5,-1.1,90.7,0.7014,-0.0272,-0.0420,-0.7109,-0.27,0.11,0.40,43.242862,-0.040311,0.25,1,418.79
69498,0.45,5.5,-1.1,90.7,0.7014,-0.0272,-0.0420,-0.7109,-0.27,0.11,0.40,43.242862,-0.040311,0.25,1,418.79
69498,0.44,5.5,-1.1,90.7,0.7014,-0.0272,-0.0420,-0.7109,-0.27,0.11,0.40,43.242862,-0.040311,0.25,1,418.79
69498,0.45,5.5,-1.1,90.7,0.7014,-0.0272,-0.0420,-0.7109,-0.27,0.11,0.40,43.242862,-0.040311,0.25,1,418.79
69498,0.44,5.5,-1.1,90.7,0.7014,-0.0272,-0.0420,-0.7109,-0.27,0.11,0.40,43.242862,-0.040311,0.25,1,418.79
69511,0.44,5.5,-1.1,90.7,0.7012,-0.0274,-0.0414,-0.7111,-0.37,-0.00,0.36,43.242862,-0.040311,0.25,1,418.79
69511,0.44,5.5,-1.1,90.7,0.7012,-0.0274,-0.0414,-0.7111,-0.37,-0.00,0.36,43.242862,-0.040311,0.25,1,418.79
69511,0.44,5.5,-1.1,90.7,0.7012,-0.0274,-0.0414,-0.7111,-0.37,-0.00,0.36,43.242862,-0.040311,0.25,1,418.79
69511,0.44,5.5,-1.1,90.7,0.7012,-0.0274,-0.0414,-0.7111,-0.37,-0.00,0.36,43.242862,-0.040311,0.25,1,418.79
69511,0.44,5.5,-1.1,90.7,0.7012,-0.0274,-0.0414,-0.7111,-0.37,-0.00,0.36,43.242862,-0.040311,0.25,1,418.79
69524,0.44,5.5,-1.0,90.8,0.7012,-0.0274,-0.0407,-0.7112,-0.41,-0.15,0.23,43.242862,-0.040311,0.25,1,418.79
69524,0.44,5.5,-1.0,90.8,0.7012,-0.0274,-0.0407,-0.7112,-0.41,-0.15,0.23,43.242862,-0.040311,0.25,1,418.79
69524,0.44,5.5,-1.0,90.8,0.7012,-0.0274,-0.0407,-0.7112,-0.41,-0.15,0.23,43.242862,-0.040311,0.25,1,418.79
69524,0.44,5.5,-1.0,90.8,0.7012,-0.0274,-0.0407,-0.7112,-0.41,-0.15,0.23,43.242862,-0.040311,0.25,1,418.79
69524,0.44,5.5,-1.0,90.8,0.7012,-0.0274,-0.0407,-0.7112,-0.41,-0.15,0.23,43.242862,-0.040311,0.25,1,418.79
69537,0.44,5.3,-1.0,90.7,0.7016,-0.0270,-0.0391,-0.7109,-0.25,-0.15,-0.25,43.242862,-0.040311,0.25,1,418.79
69537,0.44,5.3,-1.0,90.7,0.7016,-0.0270,-0.0391,-0.7109,-0.25,-0.15,-0.25,43.242862,-0.040311,0.25,1,418.79
69537,0.44,5.3,-1.0,90.7,0.7016,-0.0270,-0.0391,-0.7109,-0.25,-0.15,-0.25,43.242862,-0.040311,0.25,1,418.79
69537,0.44,5.3,-1.0,90.7,0.7016,-0.0270,-0.0391,-0.7109,-0.25,-0.15,-0.25,43.242862,-0.040311,0.25,1,418.79
69537,0.44,5.3,-1.0,90.7,0.7016,-0.0270,-0.0391,-0.7109,-0.25,-0.15,-0.25,43.242862,-0.040311,0.25,1,418.79
69549,0.44,5.2,-0.9,90.6,0.7021,-0.0269,-0.0381,-0.7105,-0.27,0.03,-0.35,43.242862,-0.040311,0.25,1,418.79
69549,0.44,5.2,-0.9,90.6,0.7021,-0.0269,-0.0381,-0.7105,-0.27,0.03,-0.35,43.242862,-0.040311,0.25,1,418.79
69549,0.44,5.2,-0.9,90.6,0.7021,-0.0269,-0.0381,-0.7105,-0.27,0.03,-0.35,43.242862,-0.040311,0.25,1,418.79
69549,0.44,5.2,-0.9,90.6,0.7021,-0.0269,-0.0381,-0.7105,-0.27,0.03,-0.35,43.242862,-0.040311,0.25,1,418.79
69549,0.43,5.2,-0.9,90.6,0.7021,-0.0269,-0.0381,-0.7105,-0.27,0.03,-0.35,43.242862,-0.040311,0.25,1,418.79
69562,0.44,5.1,-0.8,90.5,0.7026,-0.0269,-0.0368,-0.7100,-0.11,0.07,-0.79,43.242862,-0.040311,0.25,1,418.79
69562,0.43,5.1,-0.8,90.5,0.7026,-0.0269,-0.0368,-0.7100,-0.11,0.07,-0.79,43.242862,-0.040311,0.25,1,418.79
69562,0.43,5.1,-0.8,90.5,0.7026,-0.0269,-0.0368,-0.7100,-0.11,0.07,-0.79,43.242862,-0.040311,0.25,1,418.79
69562,0.43,5.1,-0.8,90.5,0.7026,-0.0269,-0.0368,-0.7100,-0.11,0.07,-0.79,43.242862,-0.040311,0.25,1,418.79
69562,0.43,5.1,-0.8,90.5,0.7026,-0.0269,-0.0368,-0.7100,-0.11,0.07,-0.79,43.242862,-0.040311,0.25,1,418.79
69575,0.43,5.0,-0.6,90.5,0.7032,-0.0270,-0.0352,-0.7095,-0.10,-0.07,-0.95,43.242862,-0.040311,0.25,1,418.79
69575,0.43,5.0,-0.6,90.5,0.7032,-0.0270,-0.0352,-0.7095,-0.10,-0.07,-0.95,43.242862,-0.040311,0.25,1,418.79
69575,0.43,5.0,-0.6,90.5,0.7032,-0.0270,-0.0352,-0.7095,-0.10,-0.07,-0.95,43.242862,-0.040311,0.25,1,418.79
69575,0.41,5.0,-0.6,90.5,0.7032,-0.0270,-0.0352,-0.7095,-0.10,-0.07,-0.95,43.242862,-0.040311,0.25,1,418.79
69575,0.43,5.0,-0.6,90.5,0.7032,-0.0270,-0.0352,-0.7095,-0.10,-0.07,-0.95,43.242862,-0.040311,0.25,1,418.79
69588,0.43,4.8,-0.2,90.3,0.7045,-0.0282,-0.0316,-0.7084,-0.10,-0.13,-1.00,43.242862,-0.040311,0.25,1,418.79
69588,0.43,4.8,-0.2,90.3,0.7045,-0.0282,-0.0316,-0.7084,-0.10,-0.13,-1.00,43.242862,-0.040311,0.25,1,418.79
69588,0.41,4.8,-0.2,90.3,0.7045,-0.0282,-0.0316,-0.7084,-0.10,-0.13,-1.00,43.242862,-0.040311,0.25,1,418.79
69588,0.41,4.8,-0.2,90.3,0.7045,-0.0282,-0.0316,-0.7084,-0.10,-0.13,-1.00,43.242862,-0.040311,0.25,1,418.79
69588,0.41,4.8,-0.2,90.3,0.7045,-0.0282,-0.0316,-0.7084,-0.10,-0.13,-1.00,43.242862,-0.040311,0.25,1,418.79
69600,0.41,4.7,-0.0,90.1,0.7052,-0.0290,-0.0301,-0.7077,-0.05,-0.12,-0.95,43.242862,-0.040311,0.27,1,418.79
69600,0.41,4.7,-0.0,90.1,0.7052,-0.0290,-0.0301,-0.7077,-0.05,-0.12,-0.95,43.242862,-0.040311,0.27,1,418.79
69600,0.41,4.7,-0.0,90.1,0.7052,-0.0290,-0.0301,-0.7077,-0.05,-0.12,-0.95,43.242862,-0.040311,0.27,1,418.79
69600,0.41,4.7,-0.0,90.1,0.7052,-0.0290,-0.0301,-0.7077,-0.05,-0.12,-0.95,43.242862,-0.040311,0.27,1,418.79
69600,0.41,4.7,-0.0,90.1,0.7052,-0.0290,-0.0301,-0.7077,-0.05,-0.12,-0.95,43.242862,-0.040311,0.27,1,418.79
69613,0.41,4.7,0.0,90.0,0.7058,-0.0299,-0.0291,-0.7070,-0.01,-0.15,-0.81,43.242862,-0.040311,0.27,1,418.79
69613,0.41,4.7,0.0,90.0,0.7058,-0.0299,-0.0291,-0.7070,-0.01,-0.15,-0.81,43.242862,-0.040311,0.27,1,418.79
69613,0.41,4.7,0.0,90.0,0.7058,-0.0299,-0.0291,-0.7070,-0.01,-0.15,-0.81,43.242862,-0.040311,0.27,1,418.79
69613,0.41,4.7,0.0,90.0,0.7058,-0.0299,-0.0291,-0.7070,-0.01,-0.15,-0.81,43.242862,-0.040311,0.27,1,418.79
69613,0.41,4.7,0.0,90.0,0.7058,-0.0299,-0.0291,-0.7070,-0.01,-0.15,-0.81,43.242862,-0.040311,0.27,1,418.79
69626,0.41,4.8,0.1,89.8,0.7073,-0.0314,-0.0286,-0.7055,0.05,0.07,-0.46,43.242862,-0.040311,0.27,1,418.79
69626,0.41,4.8,0.1,89.8,0.7073,-0.0314,-0.0286,-0.7055,0.05,0.07,-0.46,43.242862,-0.040311,0.27,1,418.79
69626,0.41,4.8,0.1,89.8,0.7073,-0.0314,-0.0286,-0.7055,0.05,0.07,-0.46,43.242862,-0.040311,0.27,1,418.79
69626,0.41,4.8,0.1,89.8,0.7073,-0.0314,-0.0286,-0.7055,0.05,0.07,-0.46,43.242862,-0.040311,0.27,1,418.79
69626,0.41,4.8,0.1,89.8,0.7073,-0.0314,-0.0286,-0.7055,0.05,0.07,-0.46,43.242862,-0.040311,0.27,1,418.79
69639,0.41,4.9,0.1,89.6,0.7081,-0.0319,-0.0292,-0.7047,0.05,0.07,-0.46,43.242862,-0.040311,0.27,1,418.79
69639,0.41,4.9,0.1,89.6,0.7081,-0.0319,-0.0292,-0.7047,0.05,0.07,-0.46,43.242862,-0.040311,0.27,1,418.79
69639,0.41,4.9,0.1,89.6,0.7081,-0.0319,-0.0292,-0.7047,0.05,0.07,-0.46,43.242862,-0.040311,0.27,1,418.79
69639,0.41,4.9,0.1,89.6,0.7081,-0.0319,-0.0292,-0.7047,0.05,0.07,-0.46,43.242862,-0.040311,0.27,1,418.79
69639,0.41,4.9,0.1,89.6,0.7081,-0.0319,-0.0292,-0.7047,0.05,0.07,-0.46,43.242862,-0.040311,0.27,1,418.79
69651,0.41,5.0,0.1,89.5,0.7088,-0.0325,-0.0301,-0.7039,0.01,0.11,-0.52,43.242862,-0.040311,0.30,1,418.79
69651,0.41,5.0,0.1,89.5,0.7088,-0.0325,-0.0301,-0.7039,0.01,0.11,-0.52,43.242862,-0.040311,0.30,1,418.79
69651,0.41,5.0,0.1,89.5,0.7088,-0.0325,-0.0301,-0.7039,0.01,0.11,-0.52,43.242862,-0.040311,0.30,1,418.79
69651,0.41,5.0,0.1,89.5,0.7088,-0.0325,-0.0301,-0.7039,0.01,0.11,-0.52,43.242862,-0.040311,0.30,1,418.79
69651,0.40,5.0,0.1,89.5,0.7088,-0.0325,-0.0301,-0.7039,0.01,0.11,-0.52,43.242862,-0.040311,0.30,1,418.79
69664,0.40,5.1,0.1,89.4,0.7104,-0.0340,-0.0317,-0.7022,0.00,0.22,-0.35,43.242862,-0.040311,0.30,1,418.79
69664,0.41,5.1,0.1,89.4,0.7104,-0.0340,-0.0317,-0.7022,0.00,0.22,-0.35,43.242862,-0.040311,0.30,1,418.79
69664,0.40,5.1,0.1,89.4,0.7104,-0.0340,-0.0317,-0.7022,0.00,0.22,-0.35,43.242862,-0.040311,0.30,1,418.79
69664,0.40,5.1,0.1,89.4,0.7104,-0.0340,-0.0317,-0.7022,0.00,0.22,-0.35,43.242862,-0.040311,0.30,1,418.79
69664,0.40,5.1,0.1,89.4,0.7104,-0.0340,-0.0317,-0.7022,0.00,0.22,-0.35,43.242862,-0.040311,0.30,1,418.79
69677,0.40,5.4,0.2,89.1,0.7116,-0.0360,-0.0325,-0.7008,0.05,0.46,-0.17,43.242862,-0.040311,0.30,1,418.79
69677,0.40,5.4,0.2,89.1,0.7116,-0.0360,-0.0325,-0.7008,0.05,0.46,-0.17,43.242862,-0.040311,0.30,1,418.79
69677,0.40,5.4,0.2,89.1,0.7116,-0.0360,-0.0325,-0.7008,0.05,0.46,-0.17,43.242862,-0.040311,0.30,1,418.79
69677,0.40,5.4,0.2,89.1,0.7116,-0.0360,-0.0325,-0.7008,0.05,0.46,-0.17,43.242862,-0.040311,0.30,1,418.79
69677,0.40,5.4,0.2,89.1,0.7116,-0.0360,-0.0325,-0.7008,0.05,0.46,-0.17,43.242862,-0.040311,0.30,1,418.79
69689,0.40,5.5,0.3,89.0,0.7116,-0.0360,-0.0325,-0.7008,0.05,0.46,-0.17,43.242862,-0.040311,0.30,1,418.79
69689,0.40,5.5,0.3,89.0,0.7116,-0.0360,-0.0325,-0.7008,0.05,0.46,-0.17,43.242862,-0.040311,0.30,1,418.79
69689,0.40,5.5,0.3,89.0,0.7116,-0.0360,-0.0325,-0.7008,0.05,0.46,-0.17,43.242862,-0.040311,0.30,1,418.79
69689,0.40,5.5,0.3,89.0,0.7116,-0.0360,-0.0325,-0.7008,0.05,0.46,-0.17,43.242862,-0.040311,0.30,1,418.79
69689,0.40,5.5,0.3,89.0,0.7116,-0.0360,-0.0325,-0.7008,0.05,0.46,-0.17,43.242862,-0.040311,0.30,1,418.79
69702,0.40,5.6,0.4,89.0,0.7120,-0.0374,-0.0324,-0.7003,-0.03,0.31,-0.03,43.242862,-0.040311,0.34,1,418.79
69702,0.40,5.6,0.4,89.0,0.7120,-0.0374,-0.0324,-0.7003,-0.03,0.31,-0.03,43.242862,-0.040311,0.34,1,418.79
69702,0.40,5.6,0.4,89.0,0.7120,-0.0374,-0.0324,-0.7003,-0.03,0.31,-0.03,43.242862,-0.040311,0.34,1,418.79
69702,0.40,5.6,0.4,89.0,0.7120,-0.0374,-0.0324,-0.7003,-0.03,0.31,-0.03,43.242862,-0.040311,0.34,1,418.79
69702,0.40,5.6,0.4,89.0,0.7120,-0.0374,-0.0324,-0.7003,-0.03,0.31,-0.03,43.242862,-0.040311,0.34,1,418.79
69715,0.40,5.8,0.6,88.9,0.7125,-0.0402,-0.0319,-0.6997,-0.18,-0.17,0.23,43.242862,-0.040311,0.34,1,418.79
69715,0.40,5.8,0.6,88.9,0.7125,-0.0402,-0.0319,-0.6997,-0.18,-0.17,0.23,43.242862,-0.040311,0.34,1,418.79
69715,0.40,5.8,0.6,88.9,0.7125,-0.0402,-0.0319,-0.6997,-0.18,-0.17,0.23,43.242862,-0.040311,0.34,1,418.79
69715,0.40,5.8,0.6,88.9,0.7125,-0.0402,-0.0319,-0.6997,-0.18,-0.17,0.23,43.242862,-0.040311,0.34,1,418.79
69715,0.40,5.8,0.6,88.9,0.7125,-0.0402,-0.0319,-0.6997,-0.18,-0.17,0.23,43.242862,-0.040311,0.34,1,418.79
69728,0.40,5.8,0.8,88.8,0.7133,-0.0421,-0.0321,-0.6988,-0.27,-0.22,0.27,43.242862,-0.040311,0.34,1,418.79
69728,0.40,5.8,0.8,88.8,0.7133,-0.0421,-0.0321,-0.6988,-0.27,-0.22,0.27,43.242862,-0.040311,0.34,1,418.79
69728,0.40,5.8,0.8,88.8,0.7133,-0.0421,-0.0321,-0.6988,-0.27,-0.22,0.27,43.242862,-0.040311,0.34,1,418.79
69728,0.40,5.8,0.8,88.8,0.7133,-0.0421,-0.0321,-0.6988,-0.27,-0.22,0.27,43.242862,-0.040311,0.34,1,418.79
69728,0.40,5.8,0.8,88.8,0.7133,-0.0421,-0.0321,-0.6988,-0.27,-0.22,0.27,43.242862,-0.040311,0.34,1,418.79
69741,0.40,6.0,0.8,88.8,0.7133,-0.0421,-0.0321,-0.6988,-0.27,-0.22,0.27,43.242862,-0.040311,0.34,1,418.79
69741,0.40,6.0,0.8,88.8,0.7133,-0.0421,-0.0321,-0.6988,-0.27,-0.22,0.27,43.242862,-0.040311,0.34,1,418.79
69741,0.40,6.0,0.8,88.8,0.7133,-0.0421,-0.0321,-0.6988,-0.27,-0.22,0.27,43.242862,-0.040311,0.34,1,418.79
69741,0.40,6.0,0.8,88.8,0.7133,-0.0421,-0.0321,-0.6988,-0.27,-0.22,0.27,43.242862,-0.040311,0.34,1,418.79
69741,0.40,6.0,0.8,88.8,0.7133,-0.0421,-0.0321,-0.6988,-0.27,-0.22,0.27,43.242862,-0.040311,0.34,1,418.79
69753,0.40,6.0,0.8,88.7,0.7136,-0.0427,-0.0325,-0.6984,-0.22,-0.27,0.27,43.242862,-0.040311,0.35,1,418.79
69753,0.40,6.0,0.8,88.7,0.7136,-0.0427,-0.0325,-0.6984,-0.22,-0.27,0.27,43.242862,-0.040311,0.35,1,418.79
69753,0.40,6.0,0.8,88.7,0.7136,-0.0427,-0.0325,-0.6984,-0.22,-0.27,0.27,43.242862,-0.040311,0.35,1,418.79
69753,0.40,6.0,0.8,88.7,0.7136,-0.0427,-0.0325,-0.6984,-0.22,-0.27,0.27,43.242862,-0.040311,0.35,1,418.79
69753,0.40,6.0,0.8,88.7,0.7136,-0.0427,-0.0325,-0.6984,-0.22,-0.27,0.27,43.242862,-0.040311,0.35,1,418.79
69766,0.40,6.2,0.7,88.5,0.7145,-0.0432,-0.0344,-0.6973,-0.15,0.07,0.11,43.242862,-0.040311,0.35,1,418.79
69766,0.40,6.2,0.7,88.5,0.7145,-0.0432,-0.0344,-0.6973,-0.15,0.07,0.11,43.242862,-0.040311,0.35,1,418.79
69766,0.40,6.2,0.7,88.5,0.7145,-0.0432,-0.0344,-0.6973,-0.15,0.07,0.11,43.242862,-0.040311,0.35,1,418.79
69766,0.40,6.2,0.7,88.5,0.7145,-0.0432,-0.0344,-0.6973,-0.15,0.07,0.11,43.242862,-0.040311,0.35,1,418.79
69766,0.40,6.2,0.7,88.5,0.7145,-0.0432,-0.0344,-0.6973,-0.15,0.07,0.11,43.242862,-0.040311,0.35,1,418.79
69779,0.40,6.5,0.6,88.4,0.7151,-0.0435,-0.0368,-0.6966,0.00,0.18,0.15,43.242862,-0.040311,0.35,1,418.79
69779,0.40,6.5,0.6,88.4,0.7151,-0.0435,-0.0368,-0.6966,0.00,0.18,0.15,43.242862,-0.040311,0.35,1,418.79
69779,0.40,6.5,0.6,88.4,0.7151,-0.0435,-0.0368,-0.6966,0.00,0.18,0.15,43.242862,-0.040311,0.35,1,418.79
69779,0.40,6.5,0.6,88.4,0.7151,-0.0435,-0.0368,-0.6966,0.00,0.18,0.15,43.242862,-0.040311,0.35,1,418.79
69779,0.40,6.5,0.6,88.4,0.7151,-0.0435,-0.0368,-0.6966,0.00,0.18,0.15,43.242862,-0.040311,0.35,1,418.79
69792,0.40,6.5,0.6,88.4,0.7151,-0.0435,-0.0368,-0.6966,0.00,0.18,0.15,43.242862,-0.040311,0.35,1,418.79
69792,0.40,6.5,0.6,88.4,0.7151,-0.0435,-0.0368,-0.6966,0.00,0.18,0.15,43.242862,-0.040311,0.35,1,418.79
69792,0.40,6.5,0.6,88.4,0.7151,-0.0435,-0.0368,-0.6966,0.00,0.18,0.15,43.242862,-0.040311,0.35,1,418.79
69792,0.40,6.5,0.6,88.4,0.7151,-0.0435,-0.0368,-0.6966,0.00,0.18,0.15,43.242862,-0.040311,0.35,1,418.79
69792,0.40,6.5,0.6,88.4,0.7151,-0.0435,-0.0368,-0.6966,0.00,0.18,0.15,43.242862,-0.040311,0.35,1,418.79
69804,0.40,6.5,0.5,88.4,0.7153,-0.0437,-0.0375,-0.6964,0.07,0.52,0.09,43.242862,-0.040311,0.35,1,418.79
69804,0.40,6.5,0.5,88.4,0.7153,-0.0437,-0.0375,-0.6964,0.07,0.52,0.09,43.242862,-0.040311,0.35,1,418.79
69804,0.40,6.5,0.5,88.4,0.7153,-0.0437,-0.0375,-0.6964,0.07,0.52,0.09,43.242862,-0.040311,0.35,1,418.79
69804,0.38,6.5,0.5,88.4,0.7153,-0.0437,-0.0375,-0.6964,0.07,0.52,0.09,43.242862,-0.040311,0.35,1,418.79
69804,0.38,6.5,0.5,88.4,0.7153,-0.0437,-0.0375,-0.6964,0.07,0.52,0.09,43.242862,-0.040311,0.35,1,418.79
69817,0.38,6.5,0.8,88.4,0.7153,-0.0457,-0.0356,-0.6962,-0.17,0.00,0.22,43.242862,-0.040311,0.35,1,418.79
69817,0.38,6.5,0.8,88.4,0.7153,-0.0457,-0.0356,-0.6962,-0.17,0.00,0.22,43.242862,-0.040311,0.35,1,418.79
69817,0.38,6.5,0.8,88.4,0.7153,-0.0457,-0.0356,-0.6962,-0.17,0.00,0.22,43.242862,-0.040311,0.35,1,418.79
69817,0.40,6.5,0.8,88.4,0.7153,-0.0457,-0.0356,-0.6962,-0.17,0.00,0.22,43.242862,-0.040311,0.35,1,418.79
69817,0.40,6.5,0.8,88.4,0.7153,-0.0457,-0.0356,-0.6962,-0.17,0.00,0.22,43.242862,-0.040311,0.35,1,418.79
69830,0.38,6.5,1.0,88.4,0.7154,-0.0466,-0.0339,-0.6962,-0.18,-0.10,0.27,43.242862,-0.040311,0.35,1,418.79
69830,0.38,6.5,1.0,88.4,0.7154,-0.0466,-0.0339,-0.6962,-0.18,-0.10,0.27,43.242862,-0.040311,0.35,1,418.79
69830,0.38,6.5,1.0,88.4,0.7154,-0.0466,-0.0339,-0.6962,-0.18,-0.10,0.27,43.242862,-0.040311,0.35,1,418.79
69830,0.38,6.5,1.0,88.4,0.7154,-0.0466,-0.0339,-0.6962,-0.18,-0.10,0.27,43.242862,-0.040311,0.35,1,418.79
69830,0.38,6.5,1.0,88.4,0.7154,-0.0466,-0.0339,-0.6962,-0.18,-0.10,0.27,43.242862,-0.040311,0.35,1,418.79
69843,0.38,6.3,1.3,88.3,0.7156,-0.0474,-0.0319,-0.6961,-0.15,-0.11,0.27,43.242862,-0.040311,0.35,1,418.79
69843,0.38,6.3,1.3,88.3,0.7156,-0.0474,-0.0319,-0.6961,-0.15,-0.11,0.27,43.242862,-0.040311,0.35,1,418.79
69843,0.38,6.3,1.3,88.3,0.7156,-0.0474,-0.0319,-0.6961,-0.15,-0.11,0.27,43.242862,-0.040311,0.35,1,418.79
69843,0.38,6.3,1.3,88.3,0.7156,-0.0474,-0.0319,-0.6961,-0.15,-0.11,0.27,43.242862,-0.040311,0.35,1,418.79
69843,0.37,6.3,1.3,88.3,0.7156,-0.0474,-0.0319,-0.6961,-0.15,-0.11,0.27,43.242862,-0.040311,0.35,1,418.79
69855,0.37,6.2,1.5,88.3,0.7158,-0.0483,-0.0298,-0.6958,-0.05,-0.15,0.19,43.242862,-0.040311,0.35,1,418.79
69855,0.37,6.2,1.5,88.3,0.7158,-0.0483,-0.0298,-0.6958,-0.05,-0.15,0.19,43.242862,-0.040311,0.35,1,418.79
69855,0.37,6.2,1.5,88.3,0.7158,-0.0483,-0.0298,-0.6958,-0.05,-0.15,0.19,43.242862,-0.040311,0.35,1,418.79
69855,0.37,6.2,1.5,88.3,0.7158,-0.0483,-0.0298,-0.6958,-0.05,-0.15,0.19,43.242862,-0.040311,0.35,1,418.79
69855,0.37,6.2,1.5,88.3,0.7158,-0.0483,-0.0298,-0.6958,-0.05,-0.15,0.19,43.242862,-0.040311,0.35,1,418.79
69868,0.37,6.0,2.0,88.1,0.7169,-0.0496,-0.0248,-0.6949,0.27,0.05,-0.17,43.242862,-0.040311,0.35,1,418.79
69868,0.37,6.0,2.0,88.1,0.7169,-0.0496,-0.0248,-0.6949,0.27,0.05,-0.17,43.242862,-0.040311,0.35,1,418.79
69868,0.37,6.0,2.0,88.1,0.7169,-0.0496,-0.0248,-0.6949,0.27,0.05,-0.17,43.242862,-0.040311,0.35,1,418.79
69868,0.37,6.0,2.0,88.1,0.7169,-0.0496,-0.0248,-0.6949,0.27,0.05,-0.17,43.242862,-0.040311,0.35,1,418.79
69868,0.37,6.0,2.0,88.1,0.7169,-0.0496,-0.0248,-0.6949,0.27,0.05,-0.17,43.242862,-0.040311,0.35,1,418.79
69881,0.37,5.7,2.3,88.1,0.7174,-0.0502,-0.0217,-0.6944,0.02,0.00,-0.34,43.242862,-0.040311,0.35,1,418.79
69881,0.37,5.7,2.3,88.1,0.7174,-0.0502,-0.0217,-0.6944,0.02,0.00,-0.34,43.242862,-0.040311,0.35,1,418.79
69881,0.37,5.7,2.3,88.1,0.7174,-0.0502,-0.0217,-0.6944,0.02,0.00,-0.34,43.242862,-0.040311,0.35,1,418.79
69881,0.37,5.7,2.3,88.1,0.7174,-0.0502,-0.0217,-0.6944,0.02,0.00,-0.34,43.242862,-0.040311,0.35,1,418.79
69881,0.36,5.7,2.3,88.1,0.7174,-0.0502,-0.0217,-0.6944,0.02,0.00,-0.34,43.242862,-0.040311,0.35,1,418.79
69894,0.37,5.5,2.7,88.0,0.7179,-0.0511,-0.0183,-0.6939,-0.05,-0.05,-0.34,43.242862,-0.040311,0.35,1,418.79
69894,0.36,5.5,2.7,88.0,0.7179,-0.0511,-0.0183,-0.6939,-0.05,-0.05,-0.34,43.242862,-0.040311,0.35,1,418.79
69894,0.37,5.5,2.7,88.0,0.7179,-0.0511,-0.0183,-0.6939,-0.05,-0.05,-0.34,43.242862,-0.040311,0.35,1,418.79
69894,0.36,5.5,2.7,88.0,0.7179,-0.0511,-0.0183,-0.6939,-0.05,-0.05,-0.34,43.242862,-0.040311,0.35,1,418.79
69894,0.36,5.5,2.7,88.0,0.7179,-0.0511,-0.0183,-0.6939,-0.05,-0.05,-0.34,43.242862,-0.040311,0.35,1,418.79
69906,0.36,5.3,3.1,87.9,0.7185,-0.0521,-0.0147,-0.6933,-0.09,-0.50,-0.60,43.242862,-0.040311,0.40,1,418.79
69906,0.36,5.3,3.1,87.9,0.7185,-0.0521,-0.0147,-0.6933,-0.09,-0.50,-0.60,43.242862,-0.040311,0.40,1,418.79
69906,0.36,5.3,3.1,87.9,0.7185,-0.0521,-0.0147,-0.6933,-0.09,-0.50,-0.60,43.242862,-0.040311,0.40,1,418.79
69906,0.36,5.3,3.1,87.9,0.7185,-0.0521,-0.0147,-0.6933,-0.09,-0.50,-0.60,43.242862,-0.040311,0.40,1,418.79
69906,0.36,5.3,3.1,87.9,0.7185,-0.0521,-0.0147,-0.6933,-0.09,-0.50,-0.60,43.242862,-0.040311,0.40,1,418.79
69919,0.36,5.0,3.7,87.6,0.7199,-0.0543,-0.0087,-0.6918,-0.15,-0.61,-0.54,43.242862,-0.040311,0.40,1,418.79
69919,0.36,5.0,3.7,87.6,0.7199,-0.0543,-0.0087,-0.6918,-0.15,-0.61,-0.54,43.242862,-0.040311,0.40,1,418.79
69919,0.36,5.0,3.7,87.6,0.7199,-0.0543,-0.0087,-0.6918,-0.15,-0.61,-0.54,43.242862,-0.040311,0.40,1,418.79
69919,0.36,5.0,3.7,87.6,0.7199,-0.0543,-0.0087,-0.6918,-0.15,-0.61,-0.54,43.242862,-0.040311,0.40,1,418.79
69919,0.36,5.0,3.7,87.6,0.7199,-0.0543,-0.0087,-0.6918,-0.15,-0.61,-0.54,43.242862,-0.040311,0.40,1,418.79
69932,0.36,4.9,4.0,87.5,0.7207,-0.0554,-0.0065,-0.6909,0.03,-0.60,-0.43,43.242862,-0.040311,0.40,1,418.79
69932,0.36,4.9,4.0,87.5,0.7207,-0.0554,-0.0065,-0.6909,0.03,-0.60,-0.43,43.242862,-0.040311,0.40,1,418.79
69932,0.36,4.9,4.0,87.5,0.7207,-0.0554,-0.0065,-0.6909,0.03,-0.60,-0.43,43.242862,-0.040311,0.40,1,418.79
69932,0.36,4.9,4.0,87.5,0.7207,-0.0554,-0.0065,-0.6909,0.03,-0.60,-0.43,43.242862,-0.040311,0.40,1,418.79
69932,0.35,4.9,4.0,87.5,0.7207,-0.0554,-0.0065,-0.6909,0.03,-0.60,-0.43,43.242862,-0.040311,0.40,1,418.79
69945,0.35,4.8,4.2,87.3,0.7216,-0.0563,-0.0048,-0.6900,0.40,0.09,0.07,43.242862,-0.040311,0.40,1,418.79
69945,0.35,4.8,4.2,87.3,0.7216,-0.0563,-0.0048,-0.6900,0.40,0.09,0.07,43.242862,-0.040311,0.40,1,418.79
69945,0.35,4.8,4.2,87.3,0.7216,-0.0563,-0.0048,-0.6900,0.40,0.09,0.07,43.242862,-0.040311,0.40,1,418.79
69945,0.35,4.8,4.2,87.3,0.7216,-0.0563,-0.0048,-0.6900,0.40,0.09,0.07,43.242862,-0.040311,0.40,1,418.79
69945,0.35,4.8,4.2,87.3,0.7216,-0.0563,-0.0048,-0.6900,0.40,0.09,0.07,43.242862,-0.040311,0.40,1,418.79
69957,0.35,4.7,4.5,87.2,0.7223,-0.0573,-0.0032,-0.6891,0.23,0.47,0.27,43.242862,-0.040311,0.48,1,418.79
69957,0.35,4.7,4.5,87.2,0.7223,-0.0573,-0.0032,-0.6891,0.23,0.47,0.27,43.242862,-0.040311,0.48,1,418.79
69957,0.35,4.7,4.5,87.2,0.7223,-0.0573,-0.0032,-0.6891,0.23,0.47,0.27,43.242862,-0.040311,0.48,1,418.79
69957,0.35,4.7,4.5,87.2,0.7223,-0.0573,-0.0032,-0.6891,0.23,0.47,0.27,43.242862,-0.040311,0.48,1,418.79
69957,0.35,4.7,4.5,87.2,0.7223,-0.0573,-0.0032,-0.6891,0.23,0.47,0.27,43.242862,-0.040311,0.48,1,418.79
69970,0.35,4.6,4.9,87.1,0.7229,-0.0592,0.0002,-0.6884,0.36,-0.17,0.77,43.242862,-0.040311,0.48,1,418.79
69970,0.35,4.6,4.9,87.1,0.7229,-0.0592,0.0002,-0.6884,0.36,-0.17,0.77,43.242862,-0.040311,0.48,1,418.79
69970,0.35,4.6,4.9,87.1,0.7229,-0.0592,0.0002,-0.6884,0.36,-0.17,0.77,43.242862,-0.040311,0.48,1,418.79
69970,0.35,4.6,4.9,87.1,0.7229,-0.0592,0.0002,-0.6884,0.36,-0.17,0.77,43.242862,-0.040311,0.48,1,418.79
69970,0.35,4.6,4.9,87.1,0.7229,-0.0592,0.0002,-0.6884,0.36,-0.17,0.77,43.242862,-0.040311,0.48,1,418.79
69983,0.35,4.5,5.1,87.1,0.7230,-0.0600,0.0020,-0.6881,0.20,-0.68,1.40,43.242862,-0.040311,0.48,1,418.79
69983,0.35,4.5,5.1,87.1,0.7230,-0.0600,0.0020,-0.6881,0.20,-0.68,1.40,43.242862,-0.040311,0.48,1,418.79
69983,0.35,4.5,5.1,87.1,0.7230,-0.0600,0.0020,-0.6881,0.20,-0.68,1.40,43.242862,-0.040311,0.48,1,418.79
69983,0.35,4.5,5.1,87.1,0.7230,-0.0600,0.0020,-0.6881,0.20,-0.68,1.40,43.242862,-0.040311,0.48,1,418.79
69983,0.35,4.5,5.1,87.1,0.7230,-0.0600,0.0020,-0.6881,0.20,-0.68,1.40,43.242862,-0.040311,0.48,1,418.79
69996,0.35,4.4,5.3,87.0,0.7237,-0.0603,0.0037,-0.6873,0.28,-0.75,1.57,43.242862,-0.040311,0.48,1,418.79
69996,0.35,4.4,5.3,87.0,0.7237,-0.0603,0.0037,-0.6873,0.28,-0.75,1.57,43.242862,-0.040311,0.48,1,418.79
69996,0.35,4.4,5.3,87.0,0.7237,-0.0603,0.0037,-0.6873,0.28,-0.75,1.57,43.242862,-0.040311,0.48,1,418.79
69996,0.35,4.4,5.3,87.0,0.7237,-0.0603,0.0037,-0.6873,0.28,-0.75,1.57,43.242862,-0.040311,0.48,1,418.79
69996,0.35,4.4,5.3,87.0,0.7237,-0.0603,0.0037,-0.6873,0.28,-0.75,1.57,43.242862,-0.040311,0.48,1,418.79
70008,0.35,4.2,5.4,86.8,0.7247,-0.0599,0.0055,-0.6864,-0.22,-0.31,1.50,43.242862,-0.040311,0.54,1,418.79
70008,0.35,4.2,5.4,86.8,0.7247,-0.0599,0.0055,-0.6864,-0.22,-0.31,1.50,43.242862,-0.040311,0.54,1,418.79
70008,0.35,4.2,5.4,86.8,0.7247,-0.0599,0.0055,-0.6864,-0.22,-0.31,1.50,43.242862,-0.040311,0.54,1,418.79
70008,0.35,4.2,5.4,86.8,0.7247,-0.0599,0.0055,-0.6864,-0.22,-0.31,1.50,43.242862,-0.040311,0.54,1,418.79
70008,0.35,4.2,5.4,86.8,0.7247,-0.0599,0.0055,-0.6864,-0.22,-0.31,1.50,43.242862,-0.040311,0.54,1,418.79
70021,0.35,4.0,5.5,86.6,0.7257,-0.0592,0.0075,-0.6853,-0.30,-0.01,1.25,43.242862,-0.040311,0.54,1,418.79
70021,0.35,4.0,5.5,86.6,0.7257,-0.0592,0.0075,-0.6853,-0.30,-0.01,1.25,43.242862,-0.040311,0.54,1,418.79
70021,0.35,4.0,5.5,86.6,0.7257,-0.0592,0.0075,-0.6853,-0.30,-0.01,1.25,43.242862,-0.040311,0.54,1,418.79
70021,0.35,4.0,5.5,86.6,0.7257,-0.0592,0.0075,-0.6853,-0.30,-0.01,1.25,43.242862,-0.040311,0.54,1,418.79
70021,0.35,4.0,5.5,86.6,0.7257,-0.0592,0.0075,-0.6853,-0.30,-0.01,1.25,43.242862,-0.040311,0.54,1,418.79
70034,0.35,3.5,5.6,86.3,0.7279,-0.0571,0.0115,-0.6832,-0.25,0.12,0.55,43.242862,-0.040311,0.54,1,418.79
70034,0.35,3.5,5.6,86.3,0.7279,-0.0571,0.0115,-0.6832,-0.25,0.12,0.55,43.242862,-0.040311,0.54,1,418.79
70034,0.35,3.5,5.6,86.3,0.7279,-0.0571,0.0115,-0.6832,-0.25,0.12,0.55,43.242862,-0.040311,0.54,1,418.79
70034,0.35,3.5,5.6,86.3,0.7279,-0.0571,0.0115,-0.6832,-0.25,0.12,0.55,43.242862,-0.040311,0.54,1,418.79
70034,0.35,3.5,5.6,86.3,0.7279,-0.0571,0.0115,-0.6832,-0.25,0.12,0.55,43.242862,-0.040311,0.54,1,418.79
70047,0.35,3.2,5.7,86.1,0.7287,-0.0560,0.0134,-0.6823,0.01,0.52,0.19,43.242862,-0.040311,0.54,1,418.79
70047,0.35,3.2,5.7,86.1,0.7287,-0.0560,0.0134,-0.6823,0.01,0.52,0.19,43.242862,-0.040311,0.54,1,418.79
70047,0.35,3.2,5.7,86.1,0.7287,-0.0560,0.0134,-0.6823,0.01,0.52,0.19,43.242862,-0.040311,0.54,1,418.79
70047,0.35,3.2,5.7,86.1,0.7287,-0.0560,0.0134,-0.6823,0.01,0.52,0.19,43.242862,-0.040311,0.54,1,418.79
70047,0.35,3.2,5.7,86.1,0.7287,-0.0560,0.0134,-0.6823,0.01,0.52,0.19,43.242862,-0.040311,0.54,1,418.79
70059,0.35,3.0,5.8,86.1,0.7293,-0.0551,0.0155,-0.6817,0.30,1.17,-0.22,43.242862,-0.040311,0.56,1,418.79
70059,0.35,3.0,5.8,86.1,0.7293,-0.0551,0.0155,-0.6817,0.30,1.17,-0.22,43.242862,-0.040311,0.56,1,418.79
70059,0.35,3.0,5.8,86.1,0.7293,-0.0551,0.0155,-0.6817,0.30,1.17,-0.22,43.242862,-0.040311,0.56,1,418.79
70059,0.35,3.0,5.8,86.1,0.7293,-0.0551,0.0155,-0.6817,0.30,1.17,-0.22,43.242862,-0.040311,0.56,1,418.79
70059,0.35,3.0,5.8,86.1,0.7293,-0.0551,0.0155,-0.6817,0.30,1.17,-0.22,43.242862,-0.040311,0.56,1,418.79
70072,0.35,2.7,5.9,86.0,0.7294,-0.0545,0.0181,-0.6815,0.38,1.11,-0.31,43.242862,-0.040311,0.56,1,418.70
70072,0.35,2.7,5.9,86.0,0.7294,-0.0545,0.0181,-0.6815,0.38,1.11,-0.31,43.242862,-0.040311,0.56,1,418.70
70072,0.35,2.7,5.9,86.0,0.7294,-0.0545,0.0181,-0.6815,0.38,1.11,-0.31,43.242862,-0.040311,0.56,1,418.70
70072,0.34,2.7,5.9,86.0,0.7294,-0.0545,0.0181,-0.6815,0.38,1.11,-0.31,43.242862,-0.040311,0.56,1,418.70
70072,0.35,2.7,5.9,86.0,0.7294,-0.0545,0.0181,-0.6815,0.38,1.11,-0.31,43.242862,-0.040311,0.56,1,418.70
70085,0.35,2.2,6.5,86.1,0.7288,-0.0549,0.0243,-0.6820,0.22,0.63,-0.40,43.242862,-0.040311,0.56,1,418.70
70085,0.34,2.2,6.5,86.1,0.7288,-0.0549,0.0243,-0.6820,0.22,0.63,-0.40,43.242862,-0.040311,0.56,1,418.70
70085,0.34,2.2,6.5,86.1,0.7288,-0.0549,0.0243,-0.6820,0.22,0.63,-0.40,43.242862,-0.040311,0.56,1,418.70
70085,0.35,2.2,6.5,86.1,0.7288,-0.0549,0.0243,-0.6820,0.22,0.63,-0.40,43.242862,-0.040311,0.56,1,418.70
70085,0.34,2.2,6.5,86.1,0.7288,-0.0549,0.0243,-0.6820,0.22,0.63,-0.40,43.242862,-0.040311,0.56,1,418.70
70098,0.34,2.0,6.8,86.3,0.7280,-0.0556,0.0276,-0.6827,0.10,0.07,-0.30,43.242862,-0.040311,0.56,1,418.70
70098,0.35,2.0,6.8,86.3,0.7280,-0.0556,0.0276,-0.6827,0.10,0.07,-0.30,43.242862,-0.040311,0.56,1,418.70
70098,0.35,2.0,6.8,86.3,0.7280,-0.0556,0.0276,-0.6827,0.10,0.07,-0.30,43.242862,-0.040311,0.56,1,418.70
70098,0.34,2.0,6.8,86.3,0.7280,-0.0556,0.0276,-0.6827,0.10,0.07,-0.30,43.242862,-0.040311,0.56,1,418.70
70098,0.34,2.0,6.8,86.3,0.7280,-0.0556,0.0276,-0.6827,0.10,0.07,-0.30,43.242862,-0.040311,0.56,1,418.70
70110,0.34,1.8,7.1,86.3,0.7272,-0.0566,0.0310,-0.6833,0.17,-0.20,-0.27,43.242862,-0.040311,0.55,1,418.70
70110,0.34,1.8,7.1,86.3,0.7272,-0.0566,0.0310,-0.6833,0.17,-0.20,-0.27,43.242862,-0.040311,0.55,1,418.70
70110,0.34,1.8,7.1,86.3,0.7272,-0.0566,0.0310,-0.6833,0.17,-0.20,-0.27,43.242862,-0.040311,0.55,1,418.70
70110,0.34,1.8,7.1,86.3,0.7272,-0.0566,0.0310,-0.6833,0.17,-0.20,-0.27,43.242862,-0.040311,0.55,1,418.70
70110,0.34,1.8,7.1,86.3,0.7272,-0.0566,0.0310,-0.6833,0.17,-0.20,-0.27,43.242862,-0.040311,0.55,1,418.70
70123,0.34,1.6,7.5,86.5,0.7265,-0.0575,0.0343,-0.6838,0.12,-0.56,-0.17,43.242862,-0.040311,0.55,1,418.70
70123,0.34,1.6,7.5,86.5,0.7265,-0.0575,0.0343,-0.6838,0.12,-0.56,-0.17,43.242862,-0.040311,0.55,1,418.70
70123,0.34,1.6,7.5,86.5,0.7265,-0.0575,0.0343,-0.6838,0.12,-0.56,-0.17,43.242862,-0.040311,0.55,1,418.70
70123,0.34,1.6,7.5,86.5,0.7265,-0.0575,0.0343,-0.6838,0.12,-0.56,-0.17,43.242862,-0.040311,0.55,1,418.70
70123,0.34,1.6,7.5,86.5,0.7265,-0.0575,0.0343,-0.6838,0.12,-0.56,-0.17,43.242862,-0.040311,0.55,1,418.70
70136,0.34,1.1,8.0,86.6,0.7254,-0.0585,0.0408,-0.6845,-0.30,-0.02,0.03,43.242862,-0.040311,0.55,1,418.70
70136,0.34,1.1,8.0,86.6,0.7254,-0.0585,0.0408,-0.6845,-0.30,-0.02,0.03,43.242862,-0.040311,0.55,1,418.70
70136,0.34,1.1,8.0,86.6,0.7254,-0.0585,0.0408,-0.6845,-0.30,-0.02,0.03,43.242862,-0.040311,0.55,1,418.70
70136,0.34,1.1,8.0,86.6,0.7254,-0.0585,0.0408,-0.6845,-0.30,-0.02,0.03,43.242862,-0.040311,0.55,1,418.70
70136,0.34,1.1,8.0,86.6,0.7254,-0.0585,0.0408,-0.6845,-0.30,-0.02,0.03,43.242862,-0.040311,0.55,1,418.70
70149,0.34,0.9,8.3,86.6,0.7249,-0.0590,0.0443,-0.6848,-0.27,0.09,0.05,43.242862,-0.040311,0.55,1,418.70
70149,0.34,0.9,8.3,86.6,0.7249,-0.0590,0.0443,-0.6848,-0.27,0.09,0.05,43.242862,-0.040311,0.55,1,418.70
70149,0.34,0.9,8.3,86.6,0.7249,-0.0590,0.0443,-0.6848,-0.27,0.09,0.05,43.242862,-0.040311,0.55,1,418.70
70149,0.34,0.9,8.3,86.6,0.7249,-0.0590,0.0443,-0.6848,-0.27,0.09,0.05,43.242862,-0.040311,0.55,1,418.70
70149,0.34,0.9,8.3,86.6,0.7249,-0.0590,0.0443,-0.6848,-0.27,0.09,0.05,43.242862,-0.040311,0.55,1,418.70
70161,0.34,0.6,8.7,86.8,0.7241,-0.0598,0.0482,-0.6853,0.00,-0.00,0.22,43.242862,-0.040311,0.51,1,418.70
70161,0.34,0.6,8.7,86.8,0.7241,-0.0598,0.0482,-0.6853,0.00,-0.00,0.22,43.242862,-0.040311,0.51,1,418.70
70161,0.34,0.6,8.7,86.8,0.7241,-0.0598,0.0482,-0.6853,0.00,-0.00,0.22,43.242862,-0.040311,0.51,1,418.70
70161,0.34,0.6,8.7,86.8,0.7241,-0.0598,0.0482,-0.6853,0.00,-0.00,0.22,43.242862,-0.040311,0.51,1,418.70
70161,0.34,0.6,8.7,86.8,0.7241,-0.0598,0.0482,-0.6853,0.00,-0.00,0.22,43.242862,-0.040311,0.51,1,418.70
70174,0.33,0.3,9.1,86.9,0.7230,-0.0608,0.0527,-0.6860,-0.63,-0.57,0.25,43.242862,-0.040311,0.51,1,418.70
70174,0.34,0.3,9.1,86.9,0.7230,-0.0608,0.0527,-0.6860,-0.63,-0.57,0.25,43.242862,-0.040311,0.51,1,418.70
70174,0.33,0.3,9.1,86.9,0.7230,-0.0608,0.0527,-0.6860,-0.63,-0.57,0.25,43.242862,-0.040311,0.51,1,418.70
70174,0.33,0.3,9.1,86.9,0.7230,-0.0608,0.0527,-0.6860,-0.63,-0.57,0.25,43.242862,-0.040311,0.51,1,418.70
70174,0.33,0.3,9.1,86.9,0.7230,-0.0608,0.0527,-0.6860,-0.63,-0.57,0.25,43.242862,-0.040311,0.51,1,418.70
70187,0.33,-0.1,10.1,87.2,0.7210,-0.0629,0.0626,-0.6872,-0.75,-0.72,0.07,43.242862,-0.040311,0.51,1,418.70
70187,0.33,-0.1,10.1,87.2,0.7210,-0.0629,0.0626,-0.6872,-0.75,-0.72,0.07,43.242862,-0.040311,0.51,1,418.70
70187,0.33,-0.1,10.1,87.2,0.7210,-0.0629,0.0626,-0.6872,-0.75,-0.72,0.07,43.242862,-0.040311,0.51,1,418.70
70187,0.33,-0.1,10.1,87.2,0.7210,-0.0629,0.0626,-0.6872,-0.75,-0.72,0.07,43.242862,-0.040311,0.51,1,418.70
70187,0.33,-0.1,10.1,87.2,0.7210,-0.0629,0.0626,-0.6872,-0.75,-0.72,0.07,43.242862,-0.040311,0.51,1,418.70
70200,0.33,-0.5,10.6,87.3,0.7202,-0.0640,0.0673,-0.6875,-0.75,-0.88,-0.05,43.242862,-0.040311,0.51,1,418.70
70200,0.33,-0.5,10.6,87.3,0.7202,-0.0640,0.0673,-0.6875,-0.75,-0.88,-0.05,43.242862,-0.040311,0.51,1,418.70
70200,0.33,-0.5,10.6,87.3,0.7202,-0.0640,0.0673,-0.6875,-0.75,-0.88,-0.05,43.242862,-0.040311,0.51,1,418.70
70200,0.33,-0.5,10.6,87.3,0.7202,-0.0640,0.0673,-0.6875,-0.75,-0.88,-0.05,43.242862,-0.040311,0.51,1,418.70
70200,0.33,-0.5,10.6,87.3,0.7202,-0.0640,0.0673,-0.6875,-0.75,-0.88,-0.05,43.242862,-0.040311,0.51,1,418.70
70212,0.33,-0.7,11.0,87.3,0.7196,-0.0650,0.0714,-0.6876,-0.58,-1.02,-0.33,43.242862,-0.040311,0.48,1,418.70
70212,0.33,-0.7,11.0,87.3,0.7196,-0.0650,0.0714,-0.6876,-0.58,-1.02,-0.33,43.242862,-0.040311,0.48,1,418.70
70212,0.33,-0.7,11.0,87.3,0.7196,-0.0650,0.0714,-0.6876,-0.58,-1.02,-0.33,43.242862,-0.040311,0.48,1,418.70
70212,0.33,-0.7,11.0,87.3,0.7196,-0.0650,0.0714,-0.6876,-0.58,-1.02,-0.33,43.242862,-0.040311,0.48,1,418.70
70212,0.33,-0.7,11.0,87.3,0.7196,-0.0650,0.0714,-0.6876,-0.58,-1.02,-0.33,43.242862,-0.040311,0.48,1,418.70
70225,0.33,-0.9,11.3,87.3,0.7192,-0.0657,0.0748,-0.6875,-0.57,-0.91,-0.37,43.242862,-0.040311,0.48,1,418.70
70225,0.33,-0.9,11.3,87.3,0.7192,-0.0657,0.0748,-0.6875,-0.57,-0.91,-0.37,43.242862,-0.040311,0.48,1,418.70
70225,0.33,-0.9,11.3,87.3,0.7192,-0.0657,0.0748,-0.6875,-0.57,-0.91,-0.37,43.242862,-0.040311,0.48,1,418.70
70225,0.33,-0.9,11.3,87.3,0.7192,-0.0657,0.0748,-0.6875,-0.57,-0.91,-0.37,43.242862,-0.040311,0.48,1,418.70
70225,0.33,-0.9,11.3,87.3,0.7192,-0.0657,0.0748,-0.6875,-0.57,-0.91,-0.37,43.242862,-0.040311,0.48,1,418.70
70238,0.33,-1.2,11.7,87.3,0.7193,-0.0662,0.0789,-0.6869,-0.47,-0.73,-0.45,43.242862,-0.040311,0.48,1,418.70
70238,0.33,-1.2,11.7,87.3,0.7193,-0.0662,0.0789,-0.6869,-0.47,-0.73,-0.45,43.242862,-0.040311,0.48,1,418.70
70238,0.33,-1.2,11.7,87.3,0.7193,-0.0662,0.0789,-0.6869,-0.47,-0.73,-0.45,43.242862,-0.040311,0.48,1,418.70
70238,0.33,-1.2,11.7,87.3,0.7193,-0.0662,0.0789,-0.6869,-0.47,-0.73,-0.45,43.242862,-0.040311,0.48,1,418.70
70238,0.33,-1.2,11.7,87.3,0.7193,-0.0662,0.0789,-0.6869,-0.47,-0.73,-0.45,43.242862,-0.040311,0.48,1,418.70
70251,0.33,-1.3,11.8,87.2,0.7196,-0.0661,0.0798,-0.6865,-0.11,-0.03,-0.61,43.242862,-0.040311,0.48,1,418.70
70251,0.33,-1.3,11.8,87.2,0.7196,-0.0661,0.0798,-0.6865,-0.11,-0.03,-0.61,43.242862,-0.040311,0.48,1,418.70
70251,0.33,-1.3,11.8,87.2,0.7196,-0.0661,0.0798,-0.6865,-0.11,-0.03,-0.61,43.242862,-0.040311,0.48,1,418.70
70251,0.33,-1.3,11.8,87.2,0.7196,-0.0661,0.0798,-0.6865,-0.11,-0.03,-0.61,43.242862,-0.040311,0.48,1,418.70
70251,0.33,-1.3,11.8,87.2,0.7196,-0.0661,0.0798,-0.6865,-0.11,-0.03,-0.61,43.242862,-0.040311,0.48,1,418.70
70263,0.33,-1.4,11.8,87.2,0.7199,-0.0658,0.0802,-0.6862,0.11,0.50,-0.56,43.242862,-0.040311,0.46,1,418.70
70263,0.33,-1.4,11.8,87.2,0.7199,-0.0658,0.0802,-0.6862,0.11,0.50,-0.56,43.242862,-0.040311,0.46,1,418.70
70263,0.33,-1.4,11.8,87.2,0.7199,-0.0658,0.0802,-0.6862,0.11,0.50,-0.56,43.242862,-0.040311,0.46,1,418.70
70263,0.33,-1.4,11.8,87.2,0.7199,-0.0658,0.0802,-0.6862,0.11,0.50,-0.56,43.242862,-0.040311,0.46,1,418.70
70263,0.33,-1.4,11.8,87.2,0.7199,-0.0658,0.0802,-0.6862,0.11,0.50,-0.56,43.242862,-0.040311,0.46,1,418.70
70276,0.33,-1.4,11.8,87.1,0.7202,-0.0651,0.0805,-0.6859,0.22,0.63,-0.66,43.242862,-0.040311,0.46,1,418.70
70276,0.33,-1.4,11.8,87.1,0.7202,-0.0651,0.0805,-0.6859,0.22,0.63,-0.66,43.242862,-0.040311,0.46,1,418.70
70276,0.33,-1.4,11.8,87.1,0.7202,-0.0651,0.0805,-0.6859,0.22,0.63,-0.66,43.242862,-0.040311,0.46,1,418.70
70276,0.33,-1.4,11.8,87.1,0.7202,-0.0651,0.0805,-0.6859,0.22,0.63,-0.66,43.242862,-0.040311,0.46,1,418.70
70276,0.33,-1.4,11.8,87.1,0.7202,-0.0651,0.0805,-0.6859,0.22,0.63,-0.66,43.242862,-0.040311,0.46,1,418.70
70289,0.33,-1.5,11.7,87.1,0.7201,-0.0648,0.0805,-0.6860,0.20,0.45,-0.83,43.242862,-0.040311,0.46,1,418.70
70289,0.33,-1.5,11.7,87.1,0.7201,-0.0648,0.0805,-0.6860,0.20,0.45,-0.83,43.242862,-0.040311,0.46,1,418.70
70289,0.33,-1.5,11.7,87.1,0.7201,-0.0648,0.0805,-0.6860,0.20,0.45,-0.83,43.242862,-0.040311,0.46,1,418.70
70289,0.33,-1.5,11.7,87.1,0.7201,-0.0648,0.0805,-0.6860,0.20,0.45,-0.83,43.242862,-0.040311,0.46,1,418.70
70289,0.33,-1.5,11.7,87.1,0.7201,-0.0648,0.0805,-0.6860,0.20,0.45,-0.83,43.242862,-0.040311,0.46,1,418.70
70302,0.33,-1.5,11.6,87.1,0.7200,-0.0646,0.0803,-0.6862,0.18,0.43,-0.83,43.242862,-0.040311,0.46,1,418.70
70302,0.33,-1.5,11.6,87.1,0.7200,-0.0646,0.0803,-0.6862,0.18,0.43,-0.83,43.242862,-0.040311,0.46,1,418.70
70302,0.33,-1.5,11.6,87.1,0.7200,-0.0646,0.0803,-0.6862,0.18,0.43,-0.83,43.242862,-0.040311,0.46,1,418.70
70302,0.33,-1.5,11.6,87.1,0.7200,-0.0646,0.0803,-0.6862,0.18,0.43,-0.83,43.242862,-0.040311,0.46,1,418.70
70302,0.33,-1.5,11.6,87.1,0.7200,-0.0646,0.0803,-0.6862,0.18,0.43,-0.83,43.242862,-0.040311,0.46,1,418.70
70314,0.33,-1.4,11.6,87.2,0.7200,-0.0641,0.0779,-0.6865,0.25,0.45,-0.70,43.242862,-0.040311,0.45,1,418.70
70314,0.33,-1.4,11.6,87.2,0.7200,-0.0641,0.0779,-0.6865,0.25,0.45,-0.70,43.242862,-0.040311,0.45,1,418.70
70314,0.33,-1.4,11.6,87.2,0.7200,-0.0641,0.0779,-0.6865,0.25,0.45,-0.70,43.242862,-0.040311,0.45,1,418.70
70314,0.33,-1.4,11.6,87.2,0.7200,-0.0641,0.0779,-0.6865,0.25,0.45,-0.70,43.242862,-0.040311,0.45,1,418.70
70314,0.33,-1.4,11.6,87.2,0.7200,-0.0641,0.0779,-0.6865,0.25,0.45,-0.70,43.242862,-0.040311,0.45,1,418.70
70327,0.34,-1.3,11.5,87.2,0.7201,-0.0638,0.0756,-0.6867,0.36,0.61,-0.41,43.242862,-0.040311,0.45,1,418.70
70327,0.34,-1.3,11.5,87.2,0.7201,-0.0638,0.0756,-0.6867,0.36,0.61,-0.41,43.242862,-0.040311,0.45,1,418.70
70327,0.34,-1.3,11.5,87.2,0.7201,-0.0638,0.0756,-0.6867,0.36,0.61,-0.41,43.242862,-0.040311,0.45,1,418.70
70327,0.34,-1.3,11.5,87.2,0.7201,-0.0638,0.0756,-0.6867,0.36,0.61,-0.41,43.242862,-0.040311,0.45,1,418.70
70327,0.33,-1.3,11.5,87.2,0.7201,-0.0638,0.0756,-0.6867,0.36,0.61,-0.41,43.242862,-0.040311,0.45,1,418.70
70340,0.34,-0.9,11.0,87.2,0.7201,-0.0634,0.0726,-0.6870,0.60,0.88,-0.30,43.242862,-0.040311,0.45,1,418.70
70340,0.33,-0.9,11.0,87.2,0.7201,-0.0634,0.0726,-0.6870,0.60,0.88,-0.30,43.242862,-0.040311,0.45,1,418.70
70340,0.33,-0.9,11.0,87.2,0.7201,-0.0634,0.0726,-0.6870,0.60,0.88,-0.30,43.242862,-0.040311,0.45,1,418.70
70340,0.33,-0.9,11.0,87.2,0.7201,-0.0634,0.0726,-0.6870,0.60,0.88,-0.30,43.242862,-0.040311,0.45,1,418.70
70340,0.33,-0.9,11.0,87.2,0.7201,-0.0634,0.0726,-0.6870,0.60,0.88,-0.30,43.242862,-0.040311,0.45,1,418.70
70352,0.33,-0.7,10.7,87.3,0.7200,-0.0632,0.0695,-0.6875,0.72,1.20,-0.09,43.242862,-0.040311,0.45,1,418.70
70352,0.33,-0.7,10.7,87.3,0.7200,-0.0632,0.0695,-0.6875,0.72,1.20,-0.09,43.242862,-0.040311,0.45,1,418.70
70352,0.33,-0.7,10.7,87.3,0.7200,-0.0632,0.0695,-0.6875,0.72,1.20,-0.09,43.242862,-0.040311,0.45,1,418.70
70352,0.34,-0.7,10.7,87.3,0.7200,-0.0632,0.0695,-0.6875,0.72,1.20,-0.09,43.242862,-0.040311,0.45,1,418.70
70352,0.34,-0.7,10.7,87.3,0.7200,-0.0632,0.0695,-0.6875,0.72,1.20,-0.09,43.242862,-0.040311,0.45,1,418.70
70365,0.34,-0.3,10.4,87.5,0.7190,-0.0636,0.0651,-0.6889,1.09,1.37,1.01,43.242862,-0.040311,0.44,1,418.70
70365,0.34,-0.3,10.4,87.5,0.7190,-0.0636,0.0651,-0.6889,1.09,1.37,1.01,43.242862,-0.040311,0.44,1,418.70
70365,0.34,-0.3,10.4,87.5,0.7190,-0.0636,0.0651,-0.6889,1.09,1.37,1.01,43.242862,-0.040311,0.44,1,418.70
70365,0.34,-0.3,10.4,87.5,0.7190,-0.0636,0.0651,-0.6889,1.09,1.37,1.01,43.242862,-0.040311,0.44,1,418.70
70365,0.33,-0.3,10.4,87.5,0.7190,-0.0636,0.0651,-0.6889,1.09,1.37,1.01,43.242862,-0.040311,0.44,1,418.70
70378,0.33,-0.2,10.3,87.6,0.7181,-0.0640,0.0646,-0.6899,0.81,1.29,0.95,43.242862,-0.040311,0.44,1,418.70
70378,0.33,-0.2,10.3,87.6,0.7181,-0.0640,0.0646,-0.6899,0.81,1.29,0.95,43.242862,-0.040311,0.44,1,418.70
70378,0.33,-0.2,10.3,87.6,0.7181,-0.0640,0.0646,-0.6899,0.81,1.29,0.95,43.242862,-0.040311,0.44,1,418.70
70378,0.33,-0.2,10.3,87.6,0.7181,-0.0640,0.0646,-0.6899,0.81,1.29,0.95,43.242862,-0.040311,0.44,1,418.70
70378,0.33,-0.2,10.3,87.6,0.7181,-0.0640,0.0646,-0.6899,0.81,1.29,0.95,43.242862,-0.040311,0.44,1,418.70
70391,0.33,-0.2,10.6,88.0,0.7154,-0.0650,0.0666,-0.6923,0.30,0.11,0.66,43.242862,-0.040309,0.44,1,418.70
70391,0.33,-0.2,10.6,88.0,0.7154,-0.0650,0.0666,-0.6923,0.30,0.11,0.66,43.242862,-0.040309,0.44,1,418.70
70391,0.33,-0.2,10.6,88.0,0.7154,-0.0650,0.0666,-0.6923,0.30,0.11,0.66,43.242862,-0.040309,0.44,1,418.70
70391,0.33,-0.2,10.6,88.0,0.7154,-0.0650,0.0666,-0.6923,0.30,0.11,0.66,43.242862,-0.040309,0.44,1,418.70
70391,0.33,-0.2,10.6,88.0,0.7154,-0.0650,0.0666,-0.6923,0.30,0.11,0.66,43.242862,-0.040309,0.44,1,418.70
70404,0.33,-0.2,10.6,88.0,0.7141,-0.0654,0.0679,-0.6936,0.07,-0.70,0.12,43.242862,-0.040309,0.44,1,418.70
70404,0.33,-0.2,10.6,88.0,0.7141,-0.0654,0.0679,-0.6936,0.07,-0.70,0.12,43.242862,-0.040309,0.44,1,418.70
70404,0.33,-0.2,10.6,88.0,0.7141,-0.0654,0.0679,-0.6936,0.07,-0.70,0.12,43.242862,-0.040309,0.44,1,418.70
70404,0.33,-0.2,10.6,88.0,0.7141,-0.0654,0.0679,-0.6936,0.07,-0.70,0.12,43.242862,-0.040309,0.44,1,418.70
70404,0.33,-0.2,10.6,88.0,0.7141,-0.0654,0.0679,-0.6936,0.07,-0.70,0.12,43.242862,-0.040309,0.44,1,418.70
70416,0.33,-0.3,10.8,88.4,0.7131,-0.0656,0.0690,-0.6945,-0.01,-0.72,-0.03,43.242862,-0.040309,0.45,1,418.70
70416,0.33,-0.3,10.8,88.4,0.7131,-0.0656,0.0690,-0.6945,-0.01,-0.72,-0.03,43.242862,-0.040309,0.45,1,418.70
70416,0.33,-0.3,10.8,88.4,0.7131,-0.0656,0.0690,-0.6945,-0.01,-0.72,-0.03,43.242862,-0.040309,0.45,1,418.70
70416,0.33,-0.3,10.8,88.4,0.7131,-0.0656,0.0690,-0.6945,-0.01,-0.72,-0.03,43.242862,-0.040309,0.45,1,418.70
70416,0.33,-0.3,10.8,88.4,0.7131,-0.0656,0.0690,-0.6945,-0.01,-0.72,-0.03,43.242862,-0.040309,0.45,1,418.70
70429,0.33,-0.4,10.8,88.5,0.7124,-0.0651,0.0691,-0.6953,-0.11,-0.77,-0.40,43.242862,-0.040309,0.45,1,418.70
70429,0.33,-0.4,10.8,88.5,0.7124,-0.0651,0.0691,-0.6953,-0.11,-0.77,-0.40,43.242862,-0.040309,0.45,1,418.70
70429,0.33,-0.4,10.8,88.5,0.7124,-0.0651,0.0691,-0.6953,-0.11,-0.77,-0.40,43.242862,-0.040309,0.45,1,418.70
70429,0.33,-0.4,10.8,88.5,0.7124,-0.0651,0.0691,-0.6953,-0.11,-0.77,-0.40,43.242862,-0.040309,0.45,1,418.70
70429,0.33,-0.4,10.8,88.5,0.7124,-0.0651,0.0691,-0.6953,-0.11,-0.77,-0.40,43.242862,-0.040309,0.45,1,418.70
70442,0.33,-0.3,10.6,88.6,0.7123,-0.0645,0.0678,-0.6955,0.15,-0.70,-0.79,43.242862,-0.040309,0.45,1,418.70
70442,0.33,-0.3,10.6,88.6,0.7123,-0.0645,0.0678,-0.6955,0.15,-0.70,-0.79,43.242862,-0.040309,0.45,1,418.70
70442,0.34,-0.3,10.6,88.6,0.7123,-0.0645,0.0678,-0.6955,0.15,-0.70,-0.79,43.242862,-0.040309,0.45,1,418.70
70442,0.34,-0.3,10.6,88.6,0.7123,-0.0645,0.0678,-0.6955,0.15,-0.70,-0.79,43.242862,-0.040309,0.45,1,418.70
70442,0.33,-0.3,10.6,88.6,0.7123,-0.0645,0.0678,-0.6955,0.15,-0.70,-0.79,43.242862,-0.040309,0.45,1,418.70
70455,0.33,-0.2,10.4,88.6,0.7124,-0.0636,0.0657,-0.6958,0.25,-0.52,-0.83,43.242862,-0.040309,0.45,1,418.70
70455,0.33,-0.2,10.4,88.6,0.7124,-0.0636,0.0657,-0.6958,0.25,-0.52,-0.83,43.242862,-0.040309,0.45,1,418.70
70455,0.34,-0.2,10.4,88.6,0.7124,-0.0636,0.0657,-0.6958,0.25,-0.52,-0.83,43.242862,-0.040309,0.45,1,418.70
70455,0.34,-0.2,10.4,88.6,0.7124,-0.0636,0.0657,-0.6958,0.25,-0.52,-0.83,43.242862,-0.040309,0.45,1,418.70
70455,0.33,-0.2,10.4,88.6,0.7124,-0.0636,0.0657,-0.6958,0.25,-0.52,-0.83,43.242862,-0.040309,0.45,1,418.70
70467,0.33,-0.1,10.1,88.6,0.7125,-0.0627,0.0631,-0.6959,0.31,-0.25,-0.93,43.242862,-0.040309,0.47,1,418.70
70467,0.33,-0.1,10.1,88.6,0.7125,-0.0627,0.0631,-0.6959,0.31,-0.25,-0.93,43.242862,-0.040309,0.47,1,418.70
70467,0.33,-0.1,10.1,88.6,0.7125,-0.0627,0.0631,-0.6959,0.31,-0.25,-0.93,43.242862,-0.040309,0.47,1,418.70
70467,0.33,-0.1,10.1,88.6,0.7125,-0.0627,0.0631,-0.6959,0.31,-0.25,-0.93,43.242862,-0.040309,0.47,1,418.70
70467,0.34,-0.1,10.1,88.6,0.7125,-0.0627,0.0631,-0.6959,0.31,-0.25,-0.93,43.242862,-0.040309,0.47,1,418.70
70480,0.34,0.1,9.6,88.6,0.7128,-0.0615,0.0579,-0.6961,0.74,0.56,-0.50,43.242862,-0.040309,0.47,1,418.70
70480,0.34,0.1,9.6,88.6,0.7128,-0.0615,0.0579,-0.6961,0.74,0.56,-0.50,43.242862,-0.040309,0.47,1,418.70
70480,0.33,0.1,9.6,88.6,0.7128,-0.0615,0.0579,-0.6961,0.74,0.56,-0.50,43.242862,-0.040309,0.47,1,418.70
70480,0.34,0.1,9.6,88.6,0.7128,-0.0615,0.0579,-0.6961,0.74,0.56,-0.50,43.242862,-0.040309,0.47,1,418.70
70480,0.33,0.1,9.6,88.6,0.7128,-0.0615,0.0579,-0.6961,0.74,0.56,-0.50,43.242862,-0.040309,0.47,1,418.70
70493,0.34,0.2,9.5,88.6,0.7128,-0.0613,0.0562,-0.6963,0.57,0.68,-0.45,43.242862,-0.040309,0.47,1,418.70
70493,0.34,0.2,9.5,88.6,0.7128,-0.0613,0.0562,-0.6963,0.57,0.68,-0.45,43.242862,-0.040309,0.47,1,418.70
70493,0.34,0.2,9.5,88.6,0.7128,-0.0613,0.0562,-0.6963,0.57,0.68,-0.45,43.242862,-0.040309,0.47,1,418.70
70493,0.34,0.2,9.5,88.6,0.7128,-0.0613,0.0562,-0.6963,0.57,0.68,-0.45,43.242862,-0.040309,0.47,1,418.70
70493,0.33,0.2,9.5,88.6,0.7128,-0.0613,0.0562,-0.6963,0.57,0.68,-0.45,43.242862,-0.040309,0.47,1,418.70
70506,0.34,0.3,9.4,88.6,0.7125,-0.0615,0.0552,-0.6967,0.36,0.50,-0.45,43.242862,-0.040309,0.47,1,418.70
70506,0.34,0.3,9.4,88.6,0.7125,-0.0615,0.0552,-0.6967,0.36,0.50,-0.45,43.242862,-0.040309,0.47,1,418.70
70506,0.34,0.3,9.4,88.6,0.7125,-0.0615,0.0552,-0.6967,0.36,0.50,-0.45,43.242862,-0.040309,0.47,1,418.70
70506,0.34,0.3,9.4,88.6,0.7125,-0.0615,0.0552,-0.6967,0.36,0.50,-0.45,43.242862,-0.040309,0.47,1,418.70
70506,0.34,0.3,9.4,88.6,0.7125,-0.0615,0.0552,-0.6967,0.36,0.50,-0.45,43.242862,-0.040309,0.47,1,418.70
70518,0.34,0.4,9.5,88.7,0.7119,-0.0621,0.0549,-0.6973,0.07,-0.25,-0.40,43.242862,-0.040309,0.48,1,418.70
70518,0.34,0.4,9.5,88.7,0.7119,-0.0621,0.0549,-0.6973,0.07,-0.25,-0.40,43.242862,-0.040309,0.48,1,418.70
70518,0.33,0.4,9.5,88.7,0.7119,-0.0621,0.0549,-0.6973,0.07,-0.25,-0.40,43.242862,-0.040309,0.48,1,418.70
70518,0.34,0.4,9.5,88.7,0.7119,-0.0621,0.0549,-0.6973,0.07,-0.25,-0.40,43.242862,-0.040309,0.48,1,418.70
70518,0.33,0.4,9.5,88.7,0.7119,-0.0621,0.0549,-0.6973,0.07,-0.25,-0.40,43.242862,-0.040309,0.48,1,418.70
70531,0.33,0.6,9.5,89.0,0.7106,-0.0639,0.0544,-0.6984,-0.38,-0.75,-0.15,43.242862,-0.040309,0.48,1,418.70
70531,0.33,0.6,9.5,89.0,0.7106,-0.0639,0.0544,-0.6984,-0.38,-0.75,-0.15,43.242862,-0.040309,0.48,1,418.70
70531,0.33,0.6,9.5,89.0,0.7106,-0.0639,0.0544,-0.6984,-0.38,-0.75,-0.15,43.242862,-0.040309,0.48,1,418.70
70531,0.33,0.6,9.5,89.0,0.7106,-0.0639,0.0544,-0.6984,-0.38,-0.75,-0.15,43.242862,-0.040309,0.48,1,418.70
70531,0.33,0.6,9.5,89.0,0.7106,-0.0639,0.0544,-0.6984,-0.38,-0.75,-0.15,43.242862,-0.040309,0.48,1,418.70
70544,0.34,0.8,9.6,89.0,0.7102,-0.0648,0.0537,-0.6989,-0.50,-0.98,0.09,43.242862,-0.040309,0.48,1,418.70
70544,0.33,0.8,9.6,89.0,0.7102,-0.0648,0.0537,-0.6989,-0.50,-0.98,0.09,43.242862,-0.040309,0.48,1,418.70
70544,0.33,0.8,9.6,89.0,0.7102,-0.0648,0.0537,-0.6989,-0.50,-0.98,0.09,43.242862,-0.040309,0.48,1,418.70
70544,0.33,0.8,9.6,89.0,0.7102,-0.0648,0.0537,-0.6989,-0.50,-0.98,0.09,43.242862,-0.040309,0.48,1,418.70
70544,0.33,0.8,9.6,89.0,0.7102,-0.0648,0.0537,-0.6989,-0.50,-0.98,0.09,43.242862,-0.040309,0.48,1,418.70
70557,0.33,1.0,9.5,89.1,0.7098,-0.0656,0.0523,-0.6992,-0.75,-1.16,0.45,43.242862,-0.040309,0.48,1,418.70
70557,0.33,1.0,9.5,89.1,0.7098,-0.0656,0.0523,-0.6992,-0.75,-1.16,0.45,43.242862,-0.040309,0.48,1,418.70
70557,0.33,1.0,9.5,89.1,0.7098,-0.0656,0.0523,-0.6992,-0.75,-1.16,0.45,43.242862,-0.040309,0.48,1,418.70
70557,0.34,1.0,9.5,89.1,0.7098,-0.0656,0.0523,-0.6992,-0.75,-1.16,0.45,43.242862,-0.040309,0.48,1,418.70
70557,0.33,1.0,9.5,89.1,0.7098,-0.0656,0.0523,-0.6992,-0.75,-1.16,0.45,43.242862,-0.040309,0.48,1,418.70
70569,0.33,1.1,9.4,89.1,0.7098,-0.0662,0.0504,-0.6993,-0.77,-1.02,0.66,43.242862,-0.040309,0.50,1,418.70
70569,0.33,1.1,9.4,89.1,0.7098,-0.0662,0.0504,-0.6993,-0.77,-1.02,0.66,43.242862,-0.040309,0.50,1,418.70
70569,0.33,1.1,9.4,89.1,0.7098,-0.0662,0.0504,-0.6993,-0.77,-1.02,0.66,43.242862,-0.040309,0.50,1,418.70
70569,0.33,1.1,9.4,89.1,0.7098,-0.0662,0.0504,-0.6993,-0.77,-1.02,0.66,43.242862,-0.040309,0.50,1,418.70
70569,0.34,1.1,9.4,89.1,0.7098,-0.0662,0.0504,-0.6993,-0.77,-1.02,0.66,43.242862,-0.040309,0.50,1,418.70
70582,0.34,1.5,9.1,89.0,0.7106,-0.0667,0.0460,-0.6987,-0.40,-0.68,1.01,43.242862,-0.040309,0.50,1,418.70
70582,0.33,1.5,9.1,89.0,0.7106,-0.0667,0.0460,-0.6987,-0.40,-0.68,1.01,43.242862,-0.040309,0.50,1,418.70
70582,0.33,1.5,9.1,89.0,0.7106,-0.0667,0.0460,-0.6987,-0.40,-0.68,1.01,43.242862,-0.040309,0.50,1,418.70
70582,0.33,1.5,9.1,89.0,0.7106,-0.0667,0.0460,-0.6987,-0.40,-0.68,1.01,43.242862,-0.040309,0.50,1,418.70
70582,0.33,1.5,9.1,89.0,0.7106,-0.0667,0.0460,-0.6987,-0.40,-0.68,1.01,43.242862,-0.040309,0.50,1,418.70
70595,0.33,1.6,9.0,88.8,0.7114,-0.0665,0.0441,-0.6981,-0.52,-0.13,1.09,43.242862,-0.040309,0.50,1,418.70
70595,0.33,1.6,9.0,88.8,0.7114,-0.0665,0.0441,-0.6981,-0.52,-0.13,1.09,43.242862,-0.040309,0.50,1,418.70
70595,0.33,1.6,9.0,88.8,0.7114,-0.0665,0.0441,-0.6981,-0.52,-0.13,1.09,43.242862,-0.040309,0.50,1,418.70
70595,0.33,1.6,9.0,88.8,0.7114,-0.0665,0.0441,-0.6981,-0.52,-0.13,1.09,43.242862,-0.040309,0.50,1,418.70
70595,0.33,1.6,9.0,88.8,0.7114,-0.0665,0.0441,-0.6981,-0.52,-0.13,1.09,43.242862,-0.040309,0.50,1,418.70
70608,0.33,1.8,8.8,88.7,0.7122,-0.0662,0.0426,-0.6974,-0.38,0.05,1.00,43.242862,-0.040309,0.50,1,418.70
70608,0.33,1.8,8.8,88.7,0.7122,-0.0662,0.0426,-0.6974,-0.38,0.05,1.00,43.242862,-0.040309,0.50,1,418.70
70608,0.33,1.8,8.8,88.7,0.7122,-0.0662,0.0426,-0.6974,-0.38,0.05,1.00,43.242862,-0.040309,0.50,1,418.70
70608,0.33,1.8,8.8,88.7,0.7122,-0.0662,0.0426,-0.6974,-0.38,0.05,1.00,43.242862,-0.040309,0.50,1,418.70
70608,0.33,1.8,8.8,88.7,0.7122,-0.0662,0.0426,-0.6974,-0.38,0.05,1.00,43.242862,-0.040309,0.50,1,418.70
70620,0.33,1.8,8.6,88.6,0.7131,-0.0657,0.0415,-0.6967,-0.23,0.20,0.83,43.242862,-0.040309,0.49,1,418.60
70620,0.33,1.8,8.6,88.6,0.7131,-0.0657,0.0415,-0.6967,-0.23,0.20,0.83,43.242862,-0.040309,0.49,1,418.60
70620,0.33,1.8,8.6,88.6,0.7131,-0.0657,0.0415,-0.6967,-0.23,0.20,0.83,43.242862,-0.040309,0.49,1,418.60
70620,0.33,1.8,8.6,88.6,0.7131,-0.0657,0.0415,-0.6967,-0.23,0.20,0.83,43.242862,-0.040309,0.49,1,418.60
70620,0.33,1.8,8.6,88.6,0.7131,-0.0657,0.0415,-0.6967,-0.23,0.20,0.83,43.242862,-0.040309,0.49,1,418.60
70633,0.33,1.7,8.5,88.3,0.7146,-0.0643,0.0406,-0.6953,-0.20,0.56,0.25,43.242862,-0.040309,0.49,1,418.60
70633,0.33,1.7,8.5,88.3,0.7146,-0.0643,0.0406,-0.6953,-0.20,0.56,0.25,43.242862,-0.040309,0.49,1,418.60
70633,0.33,1.7,8.5,88.3,0.7146,-0.0643,0.0406,-0.6953,-0.20,0.56,0.25,43.242862,-0.040309,0.49,1,418.60
70633,0.33,1.7,8.5,88.3,0.7146,-0.0643,0.0406,-0.6953,-0.20,0.56,0.25,43.242862,-0.040309,0.49,1,418.60
70633,0.33,1.7,8.5,88.3,0.7146,-0.0643,0.0406,-0.6953,-0.20,0.56,0.25,43.242862,-0.040309,0.49,1,418.60
70646,0.33,1.6,8.4,88.3,0.7151,-0.0635,0.0406,-0.6948,-0.15,0.47,0.01,43.242862,-0.040309,0.49,1,418.60
70646,0.33,1.6,8.4,88.3,0.7151,-0.0635,0.0406,-0.6948,-0.15,0.47,0.01,43.242862,-0.040309,0.49,1,418.60
70646,0.33,1.6,8.4,88.3,0.7151,-0.0635,0.0406,-0.6948,-0.15,0.47,0.01,43.242862,-0.040309,0.49,1,418.60
70646,0.33,1.6,8.4,88.3,0.7151,-0.0635,0.0406,-0.6948,-0.15,0.47,0.01,43.242862,-0.040309,0.49,1,418.60
70646,0.33,1.6,8.4,88.3,0.7151,-0.0635,0.0406,-0.6948,-0.15,0.47,0.01,43.242862,-0.040309,0.49,1,418.60
70659,0.33,1.6,8.3,88.2,0.7155,-0.0628,0.0407,-0.6945,-0.11,0.31,-0.11,43.242862,-0.040309,0.49,1,418.60
70659,0.33,1.6,8.3,88.2,0.7155,-0.0628,0.0407,-0.6945,-0.11,0.31,-0.11,43.242862,-0.040309,0.49,1,418.60
70659,0.34,1.6,8.3,88.2,0.7155,-0.0628,0.0407,-0.6945,-0.11,0.31,-0.11,43.242862,-0.040309,0.49,1,418.60
70659,0.34,1.6,8.3,88.2,0.7155,-0.0628,0.0407,-0.6945,-0.11,0.31,-0.11,43.242862,-0.040309,0.49,1,418.60
70659,0.34,1.6,8.3,88.2,0.7155,-0.0628,0.0407,-0.6945,-0.11,0.31,-0.11,43.242862,-0.040309,0.49,1,418.60
70671,0.34,1.5,8.3,88.1,0.7158,-0.0621,0.0409,-0.6942,-0.18,0.05,-0.40,43.242862,-0.040309,0.46,1,418.60
70671,0.34,1.5,8.3,88.1,0.7158,-0.0621,0.0409,-0.6942,-0.18,0.05,-0.40,43.242862,-0.040309,0.46,1,418.60
70671,0.34,1.5,8.3,88.1,0.7158,-0.0621,0.0409,-0.6942,-0.18,0.05,-0.40,43.242862,-0.040309,0.46,1,418.60
70671,0.34,1.5,8.3,88.1,0.7158,-0.0621,0.0409,-0.6942,-0.18,0.05,-0.40,43.242862,-0.040309,0.46,1,418.60
70671,0.34,1.5,8.3,88.1,0.7158,-0.0621,0.0409,-0.6942,-0.18,0.05,-0.40,43.242862,-0.040309,0.46,1,418.60
70684,0.34,1.4,8.2,88.0,0.7168,-0.0605,0.0410,-0.6934,-0.20,-0.00,-0.63,43.242862,-0.040309,0.46,1,418.60
70684,0.34,1.4,8.2,88.0,0.7168,-0.0605,0.0410,-0.6934,-0.20,-0.00,-0.63,43.242862,-0.040309,0.46,1,418.60
70684,0.34,1.4,8.2,88.0,0.7168,-0.0605,0.0410,-0.6934,-0.20,-0.00,-0.63,43.242862,-0.040309,0.46,1,418.60
70684,0.34,1.4,8.2,88.0,0.7168,-0.0605,0.0410,-0.6934,-0.20,-0.00,-0.63,43.242862,-0.040309,0.46,1,418.60
70684,0.34,1.4,8.2,88.0,0.7168,-0.0605,0.0410,-0.6934,-0.20,-0.00,-0.63,43.242862,-0.040309,0.46,1,418.60
70697,0.34,1.3,8.1,87.9,0.7175,-0.0596,0.0405,-0.6928,-0.18,0.07,-0.75,43.242862,-0.040309,0.46,1,418.60
70697,0.34,1.3,8.1,87.9,0.7175,-0.0596,0.0405,-0.6928,-0.18,0.07,-0.75,43.242862,-0.040309,0.46,1,418.60
70697,0.34,1.3,8.1,87.9,0.7175,-0.0596,0.0405,-0.6928,-0.18,0.07,-0.75,43.242862,-0.040309,0.46,1,418.60
70697,0.34,1.3,8.1,87.9,0.7175,-0.0596,0.0405,-0.6928,-0.18,0.07,-0.75,43.242862,-0.040309,0.46,1,418.60
70697,0.34,1.3,8.1,87.9,0.7175,-0.0596,0.0405,-0.6928,-0.18,0.07,-0.75,43.242862,-0.040309,0.46,1,418.60
70710,0.34,1.3,8.0,87.8,0.7182,-0.0587,0.0397,-0.6921,-0.05,0.47,-0.93,43.242862,-0.040309,0.46,1,418.60
70710,0.34,1.3,8.0,87.8,0.7182,-0.0587,0.0397,-0.6921,-0.05,0.47,-0.93,43.242862,-0.040309,0.46,1,418.60
70710,0.34,1.3,8.0,87.8,0.7182,-0.0587,0.0397,-0.6921,-0.05,0.47,-0.93,43.242862,-0.040309,0.46,1,418.60
70710,0.34,1.3,8.0,87.8,0.7182,-0.0587,0.0397,-0.6921,-0.05,0.47,-0.93,43.242862,-0.040309,0.46,1,418.60
70710,0.34,1.3,8.0,87.8,0.7182,-0.0587,0.0397,-0.6921,-0.05,0.47,-0.93,43.242862,-0.040309,0.46,1,418.60
70722,0.35,1.3,7.8,87.7,0.7189,-0.0579,0.0389,-0.6914,-0.02,0.46,-0.97,43.242862,-0.040309,0.45,1,418.60
70722,0.34,1.3,7.8,87.7,0.7189,-0.0579,0.0389,-0.6914,-0.02,0.46,-0.97,43.242862,-0.040309,0.45,1,418.60
70722,0.34,1.3,7.8,87.7,0.7189,-0.0579,0.0389,-0.6914,-0.02,0.46,-0.97,43.242862,-0.040309,0.45,1,418.60
70722,0.34,1.3,7.8,87.7,0.7189,-0.0579,0.0389,-0.6914,-0.02,0.46,-0.97,43.242862,-0.040309,0.45,1,418.60
70722,0.34,1.3,7.8,87.7,0.7189,-0.0579,0.0389,-0.6914,-0.02,0.46,-0.97,43.242862,-0.040309,0.45,1,418.60
70735,0.34,1.3,7.6,87.5,0.7203,-0.0571,0.0374,-0.6901,0.01,0.66,-0.86,43.242862,-0.040309,0.45,1,418.60
70735,0.34,1.3,7.6,87.5,0.7203,-0.0571,0.0374,-0.6901,0.01,0.66,-0.86,43.242862,-0.040309,0.45,1,418.60
70735,0.34,1.3,7.6,87.5,0.7203,-0.0571,0.0374,-0.6901,0.01,0.66,-0.86,43.242862,-0.040309,0.45,1,418.60
70735,0.34,1.3,7.6,87.5,0.7203,-0.0571,0.0374,-0.6901,0.01,0.66,-0.86,43.242862,-0.040309,0.45,1,418.60
70735,0.34,1.3,7.6,87.5,0.7203,-0.0571,0.0374,-0.6901,0.01,0.66,-0.86,43.242862,-0.040309,0.45,1,418.60
70748,0.35,1.4,7.6,87.3,0.7210,-0.0571,0.0370,-0.6894,-0.07,0.66,-0.66,43.242862,-0.040309,0.45,1,418.60
70748,0.34,1.4,7.6,87.3,0.7210,-0.0571,0.0370,-0.6894,-0.07,0.66,-0.66,43.242862,-0.040309,0.45,1,418.60
70748,0.34,1.4,7.6,87.3,0.7210,-0.0571,0.0370,-0.6894,-0.07,0.66,-0.66,43.242862,-0.040309,0.45,1,418.60
70748,0.35,1.4,7.6,87.3,0.7210,-0.0571,0.0370,-0.6894,-0.07,0.66,-0.66,43.242862,-0.040309,0.45,1,418.60
70748,0.34,1.4,7.6,87.3,0.7210,-0.0571,0.0370,-0.6894,-0.07,0.66,-0.66,43.242862,-0.040309,0.45,1,418.60
70761,0.34,1.5,7.6,87.3,0.7216,-0.0574,0.0366,-0.6889,-0.05,0.61,-0.52,43.242862,-0.040309,0.45,1,418.60
70761,0.34,1.5,7.6,87.3,0.7216,-0.0574,0.0366,-0.6889,-0.05,0.61,-0.52,43.242862,-0.040309,0.45,1,418.60
70761,0.34,1.5,7.6,87.3,0.7216,-0.0574,0.0366,-0.6889,-0.05,0.61,-0.52,43.242862,-0.040309,0.45,1,418.60
70761,0.34,1.5,7.6,87.3,0.7216,-0.0574,0.0366,-0.6889,-0.05,0.61,-0.52,43.242862,-0.040309,0.45,1,418.60
70761,0.34,1.5,7.6,87.3,0.7216,-0.0574,0.0366,-0.6889,-0.05,0.61,-0.52,43.242862,-0.040309,0.45,1,418.60
70773,0.34,1.5,7.6,87.2,0.7220,-0.0579,0.0361,-0.6884,-0.09,0.67,-0.35,43.242862,-0.040309,0.46,1,418.60
70773,0.34,1.5,7.6,87.2,0.7220,-0.0579,0.0361,-0.6884,-0.09,0.67,-0.35,43.242862,-0.040309,0.46,1,418.60
70773,0.34,1.5,7.6,87.2,0.7220,-0.0579,0.0361,-0.6884,-0.09,0.67,-0.35,43.242862,-0.040309,0.46,1,418.60
70773,0.34,1.5,7.6,87.2,0.7220,-0.0579,0.0361,-0.6884,-0.09,0.67,-0.35,43.242862,-0.040309,0.46,1,418.60
70773,0.34,1.5,7.6,87.2,0.7220,-0.0579,0.0361,-0.6884,-0.09,0.67,-0.35,43.242862,-0.040309,0.46,1,418.60
70786,0.34,1.6,7.6,87.1,0.7222,-0.0590,0.0352,-0.6882,-0.25,0.47,0.15,43.242862,-0.040309,0.46,1,418.60
70786,0.34,1.6,7.6,87.1,0.7222,-0.0590,0.0352,-0.6882,-0.25,0.47,0.15,43.242862,-0.040309,0.46,1,418.60
70786,0.34,1.6,7.6,87.1,0.7222,-0.0590,0.0352,-0.6882,-0.25,0.47,0.15,43.242862,-0.040309,0.46,1,418.60
70786,0.34,1.6,7.6,87.1,0.7222,-0.0590,0.0352,-0.6882,-0.25,0.47,0.15,43.242862,-0.040309,0.46,1,418.60
70786,0.34,1.6,7.6,87.1,0.7222,-0.0590,0.0352,-0.6882,-0.25,0.47,0.15,43.242862,-0.040309,0.46,1,418.60
70799,0.34,1.8,7.6,87.2,0.7220,-0.0597,0.0349,-0.6884,-0.33,0.15,0.35,43.242862,-0.040309,0.46,1,418.60
70799,0.34,1.8,7.6,87.2,0.7220,-0.0597,0.0349,-0.6884,-0.33,0.15,0.35,43.242862,-0.040309,0.46,1,418.60
70799,0.34,1.8,7.6,87.2,0.7220,-0.0597,0.0349,-0.6884,-0.33,0.15,0.35,43.242862,-0.040309,0.46,1,418.60
70799,0.34,1.8,7.6,87.2,0.7220,-0.0597,0.0349,-0.6884,-0.33,0.15,0.35,43.242862,-0.040309,0.46,1,418.60
70799,0.34,1.8,7.6,87.2,0.7220,-0.0597,0.0349,-0.6884,-0.33,0.15,0.35,43.242862,-0.040309,0.46,1,418.60
70812,0.34,1.8,7.7,87.2,0.7217,-0.0606,0.0346,-0.6885,-0.40,-0.05,0.88,43.242862,-0.040309,0.46,1,418.60
70812,0.34,1.8,7.7,87.2,0.7217,-0.0606,0.0346,-0.6885,-0.40,-0.05,0.88,43.242862,-0.040309,0.46,1,418.60
70812,0.34,1.8,7.7,87.2,0.7217,-0.0606,0.0346,-0.6885,-0.40,-0.05,0.88,43.242862,-0.040309,0.46,1,418.60
70812,0.34,1.8,7.7,87.2,0.7217,-0.0606,0.0346,-0.6885,-0.40,-0.05,0.88,43.242862,-0.040309,0.46,1,418.60
70812,0.34,1.8,7.7,87.2,0.7217,-0.0606,0.0346,-0.6885,-0.40,-0.05,0.88,43.242862,-0.040309,0.46,1,418.60
70824,0.34,2.0,7.7,87.3,0.7214,-0.0613,0.0343,-0.6888,-0.40,-0.05,0.88,43.242862,-0.040309,0.47,1,418.60
70824,0.34,2.0,7.7,87.3,0.7214,-0.0613,0.0343,-0.6888,-0.40,-0.05,0.88,43.242862,-0.040309,0.47,1,418.60
70824,0.35,2.0,7.7,87.3,0.7214,-0.0613,0.0343,-0.6888,-0.40,-0.05,0.88,43.242862,-0.040309,0.47,1,418.60
70824,0.35,2.0,7.7,87.3,0.7214,-0.0613,0.0343,-0.6888,-0.40,-0.05,0.88,43.242862,-0.040309,0.47,1,418.60
