tx_timestamp_ms,distance,roll,pitch,yaw,quat_w,quat_x,quat_y,quat_z,accel_x,accel_y,accel_z,latitude,longitude,altitude,flags_raw,gnss_alt
329380,0.00,0.0,0.0,0.0,0.0000,0.0000,0.0000,0.0000,0.00,0.00,0.00,43.243064,-0.040743,0.00,1,434.70
329380,0.00,0.0,0.0,0.0,0.0000,0.0000,0.0000,0.0000,0.00,0.00,0.00,43.243064,-0.040743,0.00,1,434.70
329380,0.00,0.0,0.0,0.0,0.0000,0.0000,0.0000,0.0000,0.00,0.00,0.00,43.243064,-0.040743,0.00,1,434.70
329380,0.00,0.0,0.0,0.0,0.0000,0.0000,0.0000,0.0000,0.00,0.00,0.00,43.243064,-0.040743,0.00,1,434.70
329380,0.00,0.0,0.0,0.0,0.0000,0.0000,0.0000,0.0000,0.00,0.00,0.00,43.243064,-0.040743,0.00,1,434.70
329393,0.00,-2.7,-41.5,304.6,0.8276,0.3019,0.1876,0.4342,-0.00,-0.07,-0.12,43.243064,-0.040743,0.00,1,434.70
329393,0.00,-2.7,-41.5,304.6,0.8276,0.3019,0.1876,0.4342,-0.00,-0.07,-0.12,43.243064,-0.040743,0.00,1,434.70
329393,0.00,-2.7,-41.5,304.6,0.8276,0.3019,0.1876,0.4342,-0.00,-0.07,-0.12,43.243064,-0.040743,0.00,1,434.70
329393,0.00,-2.7,-41.5,304.6,0.8276,0.3019,0.1876,0.4342,-0.00,-0.07,-0.12,43.243064,-0.040743,0.00,1,434.70
329393,0.00,-2.7,-41.5,304.6,0.8276,0.3019,0.1876,0.4342,-0.00,-0.07,-0.12,43.243064,-0.040743,0.00,1,434.70
329406,0.00,-2.7,-41.5,304.5,0.8276,0.3018,0.1875,0.4343,0.00,-0.12,-0.09,43.243064,-0.040743,0.00,1,434.70
329406,0.00,-2.7,-41.5,304.5,0.8276,0.3018,0.1875,0.4343,0.00,-0.12,-0.09,43.243064,-0.040743,0.00,1,434.70
329406,0.00,-2.7,-41.5,304.5,0.8276,0.3018,0.1875,0.4343,0.00,-0.12,-0.09,43.243064,-0.040743,0.00,1,434.70
329406,0.00,-2.7,-41.5,304.5,0.8276,0.3018,0.1875,0.4343,0.00,-0.12,-0.09,43.243064,-0.040743,0.00,1,434.70
329406,0.00,-2.7,-41.5,304.5,0.8276,0.3018,0.1875,0.4343,0.00,-0.12,-0.09,43.243064,-0.040743,0.00,1,434.70
329419,0.00,-2.7,-41.5,304.5,0.8276,0.3016,0.1876,0.4345,0.01,-0.07,-0.11,43.243064,-0.040743,0.00,1,434.70
329419,0.00,-2.7,-41.5,304.5,0.8276,0.3016,0.1876,0.4345,0.01,-0.07,-0.11,43.243064,-0.040743,0.00,1,434.70
329419,0.00,-2.7,-41.5,304.5,0.8276,0.3016,0.1876,0.4345,0.01,-0.07,-0.11,43.243064,-0.040743,0.00,1,434.70
329419,0.00,-2.7,-41.5,304.5,0.8276,0.3016,0.1876,0.4345,0.01,-0.07,-0.11,43.243064,-0.040743,0.00,1,434.70
329419,0.00,-2.7,-41.5,304.5,0.8276,0.3016,0.1876,0.4345,0.01,-0.07,-0.11,43.243064,-0.040743,0.00,1,434.70
329431,0.00,-2.7,-41.5,304.5,0.8276,0.3015,0.1878,0.4344,0.02,-0.05,-0.03,43.243064,-0.040743,0.50,1,434.70
329431,0.00,-2.7,-41.5,304.5,0.8276,0.3015,0.1878,0.4344,0.02,-0.05,-0.03,43.243064,-0.040743,0.50,1,434.70
329431,0.00,-2.7,-41.5,304.5,0.8276,0.3015,0.1878,0.4344,0.02,-0.05,-0.03,43.243064,-0.040743,0.50,1,434.70
329431,0.00,-2.7,-41.5,304.5,0.8276,0.3015,0.1878,0.4344,0.02,-0.05,-0.03,43.243064,-0.040743,0.50,1,434.70
329431,0.00,-2.7,-41.5,304.5,0.8276,0.3015,0.1878,0.4344,0.02,-0.05,-0.03,43.243064,-0.040743,0.50,1,434.70
329444,0.00,-2.8,-41.5,304.5,0.8276,0.3015,0.1879,0.4343,0.00,-0.10,-0.05,43.243064,-0.040743,0.50,1,434.70
329444,0.00,-2.8,-41.5,304.5,0.8276,0.3015,0.1879,0.4343,0.00,-0.10,-0.05,43.243064,-0.040743,0.50,1,434.70
329444,0.00,-2.8,-41.5,304.5,0.8276,0.3015,0.1879,0.4343,0.00,-0.10,-0.05,43.243064,-0.040743,0.50,1,434.70
329444,0.00,-2.8,-41.5,304.5,0.8276,0.3015,0.1879,0.4343,0.00,-0.10,-0.05,43.243064,-0.040743,0.50,1,434.70
329444,0.00,-2.8,-41.5,304.5,0.8276,0.3015,0.1879,0.4343,0.00,-0.10,-0.05,43.243064,-0.040743,0.50,1,434.70
329457,0.00,-2.8,-41.5,304.5,0.8276,0.3014,0.1880,0.4344,-0.05,0.00,-0.05,43.243064,-0.040743,0.50,1,434.70
329457,0.00,-2.8,-41.5,304.5,0.8276,0.3014,0.1880,0.4344,-0.05,0.00,-0.05,43.243064,-0.040743,0.50,1,434.70
329457,0.00,-2.8,-41.5,304.5,0.8276,0.3014,0.1880,0.4344,-0.05,0.00,-0.05,43.243064,-0.040743,0.50,1,434.70
329457,0.00,-2.8,-41.5,304.5,0.8276,0.3014,0.1880,0.4344,-0.05,0.00,-0.05,43.243064,-0.040743,0.50,1,434.70
329457,0.00,-2.8,-41.5,304.5,0.8276,0.3014,0.1880,0.4344,-0.05,0.00,-0.05,43.243064,-0.040743,0.50,1,434.70
329470,0.00,-2.7,-41.5,304.5,0.8275,0.3014,0.1879,0.4346,0.02,-0.12,-0.09,43.243064,-0.040743,0.50,1,434.70
329470,0.00,-2.7,-41.5,304.5,0.8275,0.3014,0.1879,0.4346,0.02,-0.12,-0.09,43.243064,-0.040743,0.50,1,434.70
329470,0.00,-2.7,-41.5,304.5,0.8275,0.3014,0.1879,0.4346,0.02,-0.12,-0.09,43.243064,-0.040743,0.50,1,434.70
329470,0.00,-2.7,-41.5,304.5,0.8275,0.3014,0.1879,0.4346,0.02,-0.12,-0.09,43.243064,-0.040743,0.50,1,434.70
329470,0.00,-2.7,-41.5,304.5,0.8275,0.3014,0.1879,0.4346,0.02,-0.12,-0.09,43.243064,-0.040743,0.50,1,434.70
329482,0.00,-2.7,-41.5,304.5,0.8275,0.3014,0.1877,0.4346,0.12,-0.20,-0.07,43.243064,-0.040743,0.44,1,434.70
329482,0.00,-2.7,-41.5,304.5,0.8275,0.3014,0.1877,0.4346,0.12,-0.20,-0.07,43.243064,-0.040743,0.44,1,434.70
329482,0.00,-2.7,-41.5,304.5,0.8275,0.3014,0.1877,0.4346,0.12,-0.20,-0.07,43.243064,-0.040743,0.44,1,434.70
329482,0.00,-2.7,-41.5,304.5,0.8275,0.3014,0.1877,0.4346,0.12,-0.20,-0.07,43.243064,-0.040743,0.44,1,434.70
329482,0.00,-2.7,-41.5,304.5,0.8275,0.3014,0.1877,0.4346,0.12,-0.20,-0.07,43.243064,-0.040743,0.44,1,434.70
329495,0.00,-2.7,-41.5,304.5,0.8275,0.3015,0.1877,0.4347,0.05,-0.20,-0.01,43.243064,-0.040743,0.44,1,434.70
329495,0.00,-2.7,-41.5,304.5,0.8275,0.3015,0.1877,0.4347,0.05,-0.20,-0.01,43.243064,-0.040743,0.44,1,434.70
329495,0.00,-2.7,-41.5,304.5,0.8275,0.3015,0.1877,0.4347,0.05,-0.20,-0.01,43.243064,-0.040743,0.44,1,434.70
329495,0.00,-2.7,-41.5,304.5,0.8275,0.3015,0.1877,0.4347,0.05,-0.20,-0.01,43.243064,-0.040743,0.44,1,434.70
329495,0.00,-2.7,-41.5,304.5,0.8275,0.3015,0.1877,0.4347,0.05,-0.20,-0.01,43.243064,-0.040743,0.44,1,434.70
329661,0.00,-2.8,-41.5,304.5,0.8276,0.3011,0.1879,0.4346,-0.00,-0.07,-0.15,43.243064,-0.040746,0.39,1,434.70
329661,0.00,-2.8,-41.5,304.5,0.8276,0.3011,0.1879,0.4346,-0.00,-0.07,-0.15,43.243064,-0.040746,0.39,1,434.70
329661,0.00,-2.8,-41.5,304.5,0.8276,0.3011,0.1879,0.4346,-0.00,-0.07,-0.15,43.243064,-0.040746,0.39,1,434.70
329661,0.00,-2.8,-41.5,304.5,0.8276,0.3011,0.1879,0.4346,-0.00,-0.07,-0.15,43.243064,-0.040746,0.39,1,434.70
329763,0.00,-2.8,-41.4,304.5,0.8278,0.3004,0.1881,0.4346,-0.00,-0.05,-0.07,43.243064,-0.040746,0.49,1,434.70
329763,0.00,-2.8,-41.4,304.5,0.8278,0.3004,0.1881,0.4346,-0.00,-0.05,-0.07,43.243064,-0.040746,0.49,1,434.70
329763,0.00,-2.8,-41.4,304.5,0.8278,0.3004,0.1881,0.4346,-0.00,-0.05,-0.07,43.243064,-0.040746,0.49,1,434.70
329763,0.00,-2.8,-41.4,304.5,0.8278,0.3004,0.1881,0.4346,-0.00,-0.05,-0.07,43.243064,-0.040746,0.49,1,434.70
329763,0.00,-2.8,-41.4,304.5,0.8278,0.3004,0.1881,0.4346,-0.00,-0.05,-0.07,43.243064,-0.040746,0.49,1,434.70
329878,0.00,-2.7,-41.4,304.5,0.8275,0.3009,0.1875,0.4351,0.12,-0.25,-0.20,43.243064,-0.040746,0.56,1,434.70
329878,0.00,-2.7,-41.4,304.5,0.8275,0.3009,0.1875,0.4351,0.12,-0.25,-0.20,43.243064,-0.040746,0.56,1,434.70
329878,0.00,-2.7,-41.4,304.5,0.8275,0.3009,0.1875,0.4351,0.12,-0.25,-0.20,43.243064,-0.040746,0.56,1,434.70
329878,0.00,-2.7,-41.4,304.5,0.8275,0.3009,0.1875,0.4351,0.12,-0.25,-0.20,43.243064,-0.040746,0.56,1,434.70
329878,0.00,-2.7,-41.4,304.5,0.8275,0.3009,0.1875,0.4351,0.12,-0.25,-0.20,43.243064,-0.040746,0.56,1,434.70
329980,0.00,-2.9,-41.3,304.6,0.8281,0.2999,0.1882,0.4344,0.02,-0.11,-0.03,43.243064,-0.040746,0.55,1,434.70
329980,0.00,-2.9,-41.3,304.6,0.8281,0.2999,0.1882,0.4344,0.02,-0.11,-0.03,43.243064,-0.040746,0.55,1,434.70
329980,0.00,-2.9,-41.3,304.6,0.8281,0.2999,0.1882,0.4344,0.02,-0.11,-0.03,43.243064,-0.040746,0.55,1,434.70
329980,0.00,-2.9,-41.3,304.6,0.8281,0.2999,0.1882,0.4344,0.02,-0.11,-0.03,43.243064,-0.040746,0.55,1,434.70
330056,0.00,-2.8,-41.3,304.6,0.8282,0.2998,0.1880,0.4343,0.00,-0.05,-0.05,43.243064,-0.040746,0.44,1,434.70
330056,0.00,-2.8,-41.3,304.6,0.8282,0.2998,0.1880,0.4343,0.00,-0.05,-0.05,43.243064,-0.040746,0.44,1,434.70
330056,0.00,-2.8,-41.3,304.6,0.8282,0.2998,0.1880,0.4343,0.00,-0.05,-0.05,43.243064,-0.040746,0.44,1,434.70
330056,0.00,-2.8,-41.3,304.6,0.8282,0.2998,0.1880,0.4343,0.00,-0.05,-0.05,43.243064,-0.040746,0.44,1,434.70
330056,0.00,-2.8,-41.3,304.6,0.8282,0.2998,0.1880,0.4343,0.00,-0.05,-0.05,43.243064,-0.040746,0.44,1,434.70
330107,0.00,-2.8,-41.3,304.6,0.8281,0.2998,0.1880,0.4345,0.03,-0.03,-0.05,43.243064,-0.040746,0.38,1,434.70
330107,0.00,-2.8,-41.3,304.6,0.8281,0.2998,0.1880,0.4345,0.03,-0.03,-0.05,43.243064,-0.040746,0.38,1,434.70
330107,0.00,-2.8,-41.3,304.6,0.8281,0.2998,0.1880,0.4345,0.03,-0.03,-0.05,43.243064,-0.040746,0.38,1,434.70
330107,0.00,-2.8,-41.3,304.6,0.8281,0.2998,0.1880,0.4345,0.03,-0.03,-0.05,43.243064,-0.040746,0.38,1,434.70
330107,0.00,-2.8,-41.3,304.6,0.8281,0.2998,0.1880,0.4345,0.03,-0.03,-0.05,43.243064,-0.040746,0.38,1,434.70
330158,0.00,-2.8,-41.3,304.5,0.8279,0.3001,0.1879,0.4348,0.05,-0.20,-0.05,43.243064,-0.040746,0.33,1,434.79
330158,0.00,-2.8,-41.3,304.5,0.8279,0.3001,0.1879,0.4348,0.05,-0.20,-0.05,43.243064,-0.040746,0.33,1,434.79
330158,0.00,-2.8,-41.3,304.5,0.8279,0.3001,0.1879,0.4348,0.05,-0.20,-0.05,43.243064,-0.040746,0.33,1,434.79
330158,0.00,-2.8,-41.3,304.5,0.8279,0.3001,0.1879,0.4348,0.05,-0.20,-0.05,43.243064,-0.040746,0.33,1,434.79
330171,0.00,-2.8,-41.3,304.5,0.8278,0.3002,0.1879,0.4348,0.02,-0.13,-0.13,43.243064,-0.040746,0.33,1,434.79
330171,0.00,-2.8,-41.3,304.5,0.8278,0.3002,0.1879,0.4348,0.02,-0.13,-0.13,43.243064,-0.040746,0.33,1,434.79
330171,0.00,-2.8,-41.3,304.5,0.8278,0.3002,0.1879,0.4348,0.02,-0.13,-0.13,43.243064,-0.040746,0.33,1,434.79
330171,0.00,-2.8,-41.3,304.5,0.8278,0.3002,0.1879,0.4348,0.02,-0.13,-0.13,43.243064,-0.040746,0.33,1,434.79
330171,0.00,-2.8,-41.3,304.5,0.8278,0.3002,0.1879,0.4348,0.02,-0.13,-0.13,43.243064,-0.040746,0.33,1,434.79
330184,0.00,-2.8,-41.3,304.5,0.8280,0.3002,0.1879,0.4345,0.00,-0.12,-0.15,43.243064,-0.040746,0.33,1,434.79
330184,0.00,-2.8,-41.3,304.5,0.8280,0.3002,0.1879,0.4345,0.00,-0.12,-0.15,43.243064,-0.040746,0.33,1,434.79
330184,0.00,-2.8,-41.3,304.5,0.8280,0.3002,0.1879,0.4345,0.00,-0.12,-0.15,43.243064,-0.040746,0.33,1,434.79
330184,0.00,-2.8,-41.3,304.5,0.8280,0.3002,0.1879,0.4345,0.00,-0.12,-0.15,43.243064,-0.040746,0.33,1,434.79
330184,0.00,-2.8,-41.3,304.5,0.8280,0.3002,0.1879,0.4345,0.00,-0.12,-0.15,43.243064,-0.040746,0.33,1,434.79
330196,0.00,-2.8,-41.3,304.6,0.8281,0.3002,0.1878,0.4344,-0.05,-0.11,-0.19,43.243064,-0.040746,0.27,1,434.79
330196,0.00,-2.8,-41.3,304.6,0.8281,0.3002,0.1878,0.4344,-0.05,-0.11,-0.19,43.243064,-0.040746,0.27,1,434.79
330196,0.00,-2.8,-41.3,304.6,0.8281,0.3002,0.1878,0.4344,-0.05,-0.11,-0.19,43.243064,-0.040746,0.27,1,434.79
330196,0.00,-2.8,-41.3,304.6,0.8281,0.3002,0.1878,0.4344,-0.05,-0.11,-0.19,43.243064,-0.040746,0.27,1,434.79
330196,0.00,-2.8,-41.3,304.6,0.8281,0.3002,0.1878,0.4344,-0.05,-0.11,-0.19,43.243064,-0.040746,0.27,1,434.79
330209,0.00,-2.8,-41.3,304.6,0.8281,0.3002,0.1878,0.4343,-0.10,-0.11,-0.25,43.243064,-0.040746,0.27,1,434.79
330209,0.00,-2.8,-41.3,304.6,0.8281,0.3002,0.1878,0.4343,-0.10,-0.11,-0.25,43.243064,-0.040746,0.27,1,434.79
330209,0.00,-2.8,-41.3,304.6,0.8281,0.3002,0.1878,0.4343,-0.10,-0.11,-0.25,43.243064,-0.040746,0.27,1,434.79
330209,0.00,-2.8,-41.3,304.6,0.8281,0.3002,0.1878,0.4343,-0.10,-0.11,-0.25,43.243064,-0.040746,0.27,1,434.79
330222,0.00,-2.8,-41.3,304.6,0.8281,0.3002,0.1878,0.4343,-0.05,-0.10,-0.25,43.243064,-0.040746,0.27,1,434.79
330222,0.00,-2.8,-41.3,304.6,0.8281,0.3002,0.1878,0.4343,-0.05,-0.10,-0.25,43.243064,-0.040746,0.27,1,434.79
330222,0.00,-2.8,-41.3,304.6,0.8281,0.3002,0.1878,0.4343,-0.05,-0.10,-0.25,43.243064,-0.040746,0.27,1,434.79
330222,0.00,-2.8,-41.3,304.6,0.8281,0.3002,0.1878,0.4343,-0.05,-0.10,-0.25,43.243064,-0.040746,0.27,1,434.79
330222,0.00,-2.8,-41.3,304.6,0.8281,0.3002,0.1878,0.4343,-0.05,-0.10,-0.25,43.243064,-0.040746,0.27,1,434.79
330235,0.00,-2.8,-41.3,304.6,0.8281,0.3002,0.1878,0.4345,-0.07,-0.18,-0.23,43.243064,-0.040746,0.27,1,434.79
330235,0.00,-2.8,-41.3,304.6,0.8281,0.3002,0.1878,0.4345,-0.07,-0.18,-0.23,43.243064,-0.040746,0.27,1,434.79
330235,0.00,-2.8,-41.3,304.6,0.8281,0.3002,0.1878,0.4345,-0.07,-0.18,-0.23,43.243064,-0.040746,0.27,1,434.79
330235,0.00,-2.8,-41.3,304.6,0.8281,0.3002,0.1878,0.4345,-0.07,-0.18,-0.23,43.243064,-0.040746,0.27,1,434.79
330247,0.00,-2.8,-41.3,304.5,0.8280,0.3002,0.1878,0.4346,-0.07,-0.17,-0.22,43.243064,-0.040746,0.22,1,434.79
330247,0.00,-2.8,-41.3,304.5,0.8280,0.3002,0.1878,0.4346,-0.07,-0.17,-0.22,43.243064,-0.040746,0.22,1,434.79
330247,0.00,-2.8,-41.3,304.5,0.8280,0.3002,0.1878,0.4346,-0.07,-0.17,-0.22,43.243064,-0.040746,0.22,1,434.79
330247,0.00,-2.8,-41.3,304.5,0.8280,0.3002,0.1878,0.4346,-0.07,-0.17,-0.22,43.243064,-0.040746,0.22,1,434.79
330247,0.00,-2.8,-41.3,304.5,0.8280,0.3002,0.1878,0.4346,-0.07,-0.17,-0.22,43.243064,-0.040746,0.22,1,434.79
330260,0.00,-2.8,-41.3,304.5,0.8279,0.3002,0.1878,0.4347,-0.09,-0.15,-0.23,43.243064,-0.040746,0.22,1,434.79
330260,0.00,-2.8,-41.3,304.5,0.8279,0.3002,0.1878,0.4347,-0.09,-0.15,-0.23,43.243064,-0.040746,0.22,1,434.79
330260,0.00,-2.8,-41.3,304.5,0.8279,0.3002,0.1878,0.4347,-0.09,-0.15,-0.23,43.243064,-0.040746,0.22,1,434.79
330260,0.00,-2.8,-41.3,304.5,0.8279,0.3002,0.1878,0.4347,-0.09,-0.15,-0.23,43.243064,-0.040746,0.22,1,434.79
330260,0.00,-2.8,-41.3,304.5,0.8279,0.3002,0.1878,0.4347,-0.09,-0.15,-0.23,43.243064,-0.040746,0.22,1,434.79
330273,0.00,-2.8,-41.3,304.5,0.8279,0.3002,0.1878,0.4348,-0.03,-0.10,-0.23,43.243064,-0.040746,0.22,1,434.79
330273,0.00,-2.8,-41.3,304.5,0.8279,0.3002,0.1878,0.4348,-0.03,-0.10,-0.23,43.243064,-0.040746,0.22,1,434.79
330273,0.00,-2.8,-41.3,304.5,0.8279,0.3002,0.1878,0.4348,-0.03,-0.10,-0.23,43.243064,-0.040746,0.22,1,434.79
330273,0.00,-2.8,-41.3,304.5,0.8279,0.3002,0.1878,0.4348,-0.03,-0.10,-0.23,43.243064,-0.040746,0.22,1,434.79
330273,0.00,-2.8,-41.3,304.5,0.8279,0.3002,0.1878,0.4348,-0.03,-0.10,-0.23,43.243064,-0.040746,0.22,1,434.79
330286,0.00,-2.8,-41.3,304.5,0.8278,0.3001,0.1875,0.4351,0.01,-0.11,-0.25,43.243064,-0.040746,0.22,1,434.79
330286,0.00,-2.8,-41.3,304.5,0.8278,0.3001,0.1875,0.4351,0.01,-0.11,-0.25,43.243064,-0.040746,0.22,1,434.79
330286,0.00,-2.8,-41.3,304.5,0.8278,0.3001,0.1875,0.4351,0.01,-0.11,-0.25,43.243064,-0.040746,0.22,1,434.79
330286,0.00,-2.8,-41.3,304.5,0.8278,0.3001,0.1875,0.4351,0.01,-0.11,-0.25,43.243064,-0.040746,0.22,1,434.79
330286,0.00,-2.8,-41.3,304.5,0.8278,0.3001,0.1875,0.4351,0.01,-0.11,-0.25,43.243064,-0.040746,0.22,1,434.79
330299,0.00,-2.7,-41.3,304.5,0.8279,0.2999,0.1873,0.4352,0.10,-0.15,-0.25,43.243064,-0.040746,0.15,1,434.79
330299,0.00,-2.7,-41.3,304.5,0.8279,0.2999,0.1873,0.4352,0.10,-0.15,-0.25,43.243064,-0.040746,0.15,1,434.79
330299,0.00,-2.7,-41.3,304.5,0.8279,0.2999,0.1873,0.4352,0.10,-0.15,-0.25,43.243064,-0.040746,0.15,1,434.79
330299,0.00,-2.7,-41.3,304.5,0.8279,0.2999,0.1873,0.4352,0.10,-0.15,-0.25,43.243064,-0.040746,0.15,1,434.79
330299,0.00,-2.7,-41.3,304.5,0.8279,0.2999,0.1873,0.4352,0.10,-0.15,-0.25,43.243064,-0.040746,0.15,1,434.79
330311,0.00,-2.7,-41.3,304.5,0.8279,0.2999,0.1871,0.4353,0.15,-0.15,-0.22,43.243064,-0.040746,0.15,1,434.79
330311,0.00,-2.7,-41.3,304.5,0.8279,0.2999,0.1871,0.4353,0.15,-0.15,-0.22,43.243064,-0.040746,0.15,1,434.79
330311,0.00,-2.7,-41.3,304.5,0.8279,0.2999,0.1871,0.4353,0.15,-0.15,-0.22,43.243064,-0.040746,0.15,1,434.79
330311,0.00,-2.7,-41.3,304.5,0.8279,0.2999,0.1871,0.4353,0.15,-0.15,-0.22,43.243064,-0.040746,0.15,1,434.79
330311,0.00,-2.7,-41.3,304.5,0.8279,0.2999,0.1871,0.4353,0.15,-0.15,-0.22,43.243064,-0.040746,0.15,1,434.79
330324,0.00,-2.7,-41.2,304.5,0.8279,0.2998,0.1870,0.4354,0.09,-0.10,-0.18,43.243064,-0.040746,0.15,1,434.79
330324,0.00,-2.7,-41.2,304.5,0.8279,0.2998,0.1870,0.4354,0.09,-0.10,-0.18,43.243064,-0.040746,0.15,1,434.79
330324,0.00,-2.7,-41.2,304.5,0.8279,0.2998,0.1870,0.4354,0.09,-0.10,-0.18,43.243064,-0.040746,0.15,1,434.79
330324,0.00,-2.7,-41.2,304.5,0.8279,0.2998,0.1870,0.4354,0.09,-0.10,-0.18,43.243064,-0.040746,0.15,1,434.79
330324,0.00,-2.7,-41.2,304.5,0.8279,0.2998,0.1870,0.4354,0.09,-0.10,-0.18,43.243064,-0.040746,0.15,1,434.79
330337,0.00,-2.7,-41.2,304.4,0.8278,0.2996,0.1869,0.4356,0.00,-0.11,-0.05,43.243064,-0.040746,0.15,1,434.79
330337,0.00,-2.7,-41.2,304.4,0.8278,0.2996,0.1869,0.4356,0.00,-0.11,-0.05,43.243064,-0.040746,0.15,1,434.79
330337,0.00,-2.7,-41.2,304.4,0.8278,0.2996,0.1869,0.4356,0.00,-0.11,-0.05,43.243064,-0.040746,0.15,1,434.79
330337,0.00,-2.7,-41.2,304.4,0.8278,0.2996,0.1869,0.4356,0.00,-0.11,-0.05,43.243064,-0.040746,0.15,1,434.79
330337,0.00,-2.7,-41.2,304.4,0.8278,0.2996,0.1869,0.4356,0.00,-0.11,-0.05,43.243064,-0.040746,0.15,1,434.79
330349,0.00,-2.7,-41.2,304.4,0.8278,0.2995,0.1869,0.4357,-0.01,-0.09,-0.01,43.243064,-0.040746,0.10,1,434.79
330349,0.00,-2.7,-41.2,304.4,0.8278,0.2995,0.1869,0.4357,-0.01,-0.09,-0.01,43.243064,-0.040746,0.10,1,434.79
330349,0.00,-2.7,-41.2,304.4,0.8278,0.2995,0.1869,0.4357,-0.01,-0.09,-0.01,43.243064,-0.040746,0.10,1,434.79
330349,0.00,-2.7,-41.2,304.4,0.8278,0.2995,0.1869,0.4357,-0.01,-0.09,-0.01,43.243064,-0.040746,0.10,1,434.79
330349,0.00,-2.7,-41.2,304.4,0.8278,0.2995,0.1869,0.4357,-0.01,-0.09,-0.01,43.243064,-0.040746,0.10,1,434.79
330362,0.00,-2.7,-41.2,304.4,0.8278,0.2994,0.1870,0.4358,-0.01,-0.05,-0.00,43.243064,-0.040746,0.10,1,434.79
330362,0.00,-2.7,-41.2,304.4,0.8278,0.2994,0.1870,0.4358,-0.01,-0.05,-0.00,43.243064,-0.040746,0.10,1,434.79
330375,0.00,-2.7,-41.2,304.4,0.8278,0.2993,0.1868,0.4359,0.03,-0.07,0.02,43.243064,-0.040746,0.10,1,434.79
330375,0.00,-2.7,-41.2,304.4,0.8278,0.2993,0.1868,0.4359,0.03,-0.07,0.02,43.243064,-0.040746,0.10,1,434.79
330375,0.00,-2.7,-41.2,304.4,0.8278,0.2993,0.1868,0.4359,0.03,-0.07,0.02,43.243064,-0.040746,0.10,1,434.79
330375,0.00,-2.7,-41.2,304.4,0.8278,0.2993,0.1868,0.4359,0.03,-0.07,0.02,43.243064,-0.040746,0.10,1,434.79
330375,0.00,-2.7,-41.2,304.4,0.8278,0.2993,0.1868,0.4359,0.03,-0.07,0.02,43.243064,-0.040746,0.10,1,434.79
330388,0.00,-2.7,-41.1,304.4,0.8278,0.2992,0.1867,0.4360,-0.02,-0.05,0.10,43.243064,-0.040746,0.10,1,434.79
330388,0.00,-2.7,-41.1,304.4,0.8278,0.2992,0.1867,0.4360,-0.02,-0.05,0.10,43.243064,-0.040746,0.10,1,434.79
330388,0.00,-2.7,-41.1,304.4,0.8278,0.2992,0.1867,0.4360,-0.02,-0.05,0.10,43.243064,-0.040746,0.10,1,434.79
330388,0.00,-2.7,-41.1,304.4,0.8278,0.2992,0.1867,0.4360,-0.02,-0.05,0.10,43.243064,-0.040746,0.10,1,434.79
330388,0.00,-2.7,-41.1,304.4,0.8278,0.2992,0.1867,0.4360,-0.02,-0.05,0.10,43.243064,-0.040746,0.10,1,434.79
330400,0.00,-2.7,-41.1,304.4,0.8278,0.2992,0.1867,0.4360,-0.02,-0.05,0.10,43.243064,-0.040746,0.02,1,434.79
330400,0.00,-2.7,-41.1,304.4,0.8278,0.2992,0.1867,0.4360,-0.02,-0.05,0.10,43.243064,-0.040746,0.02,1,434.79
330400,0.00,-2.7,-41.1,304.4,0.8278,0.2992,0.1867,0.4360,-0.02,-0.05,0.10,43.243064,-0.040746,0.02,1,434.79
330400,0.00,-2.7,-41.1,304.4,0.8278,0.2992,0.1867,0.4360,-0.02,-0.05,0.10,43.243064,-0.040746,0.02,1,434.79
330413,0.00,-2.6,-41.1,304.3,0.8278,0.2991,0.1865,0.4362,0.02,-0.10,0.11,43.243064,-0.040746,0.02,1,434.79
330413,0.00,-2.6,-41.1,304.3,0.8278,0.2991,0.1865,0.4362,0.02,-0.10,0.11,43.243064,-0.040746,0.02,1,434.79
330413,0.00,-2.6,-41.1,304.3,0.8278,0.2991,0.1865,0.4362,0.02,-0.10,0.11,43.243064,-0.040746,0.02,1,434.79
330413,0.00,-2.6,-41.1,304.3,0.8278,0.2991,0.1865,0.4362,0.02,-0.10,0.11,43.243064,-0.040746,0.02,1,434.79
330413,0.00,-2.6,-41.1,304.3,0.8278,0.2991,0.1865,0.4362,0.02,-0.10,0.11,43.243064,-0.040746,0.02,1,434.79
330426,0.00,-2.6,-41.1,304.3,0.8279,0.2991,0.1864,0.4362,0.05,-0.11,0.02,43.243064,-0.040746,0.02,1,434.79
330426,0.00,-2.6,-41.1,304.3,0.8279,0.2991,0.1864,0.4362,0.05,-0.11,0.02,43.243064,-0.040746,0.02,1,434.79
330426,0.00,-2.6,-41.1,304.3,0.8279,0.2991,0.1864,0.4362,0.05,-0.11,0.02,43.243064,-0.040746,0.02,1,434.79
330426,0.00,-2.6,-41.1,304.3,0.8279,0.2991,0.1864,0.4362,0.05,-0.11,0.02,43.243064,-0.040746,0.02,1,434.79
330426,0.00,-2.6,-41.1,304.3,0.8279,0.2991,0.1864,0.4362,0.05,-0.11,0.02,43.243064,-0.040746,0.02,1,434.79
330439,0.00,-2.6,-41.1,304.4,0.8279,0.2993,0.1862,0.4360,0.02,-0.07,-0.00,43.243064,-0.040746,0.02,1,434.79
330439,0.00,-2.6,-41.1,304.4,0.8279,0.2993,0.1862,0.4360,0.02,-0.07,-0.00,43.243064,-0.040746,0.02,1,434.79
330439,0.00,-2.6,-41.1,304.4,0.8279,0.2993,0.1862,0.4360,0.02,-0.07,-0.00,43.243064,-0.040746,0.02,1,434.79
330439,0.00,-2.6,-41.1,304.4,0.8279,0.2993,0.1862,0.4360,0.02,-0.07,-0.00,43.243064,-0.040746,0.02,1,434.79
330439,0.00,-2.6,-41.1,304.4,0.8279,0.2993,0.1862,0.4360,0.02,-0.07,-0.00,43.243064,-0.040746,0.02,1,434.79
330451,0.00,-2.6,-41.1,304.4,0.8280,0.2993,0.1860,0.4360,0.03,-0.11,-0.05,43.243064,-0.040746,-0.10,1,434.79
330451,0.00,-2.6,-41.1,304.4,0.8280,0.2993,0.1860,0.4360,0.03,-0.11,-0.05,43.243064,-0.040746,-0.10,1,434.79
330451,0.00,-2.6,-41.1,304.4,0.8280,0.2993,0.1860,0.4360,0.03,-0.11,-0.05,43.243064,-0.040746,-0.10,1,434.79
330451,0.00,-2.6,-41.1,304.4,0.8280,0.2993,0.1860,0.4360,0.03,-0.11,-0.05,43.243064,-0.040746,-0.10,1,434.79
330451,0.00,-2.6,-41.1,304.4,0.8280,0.2993,0.1860,0.4360,0.03,-0.11,-0.05,43.243064,-0.040746,-0.10,1,434.79
330464,0.00,-2.6,-41.1,304.4,0.8280,0.2994,0.1860,0.4360,0.07,-0.13,-0.18,43.243064,-0.040746,-0.10,1,434.79
330464,0.00,-2.6,-41.1,304.4,0.8280,0.2994,0.1860,0.4360,0.07,-0.13,-0.18,43.243064,-0.040746,-0.10,1,434.79
330464,0.00,-2.6,-41.1,304.4,0.8280,0.2994,0.1860,0.4360,0.07,-0.13,-0.18,43.243064,-0.040746,-0.10,1,434.79
330464,0.00,-2.6,-41.1,304.4,0.8280,0.2994,0.1860,0.4360,0.07,-0.13,-0.18,43.243064,-0.040746,-0.10,1,434.79
330464,0.00,-2.6,-41.1,304.4,0.8280,0.2994,0.1860,0.4360,0.07,-0.13,-0.18,43.243064,-0.040746,-0.10,1,434.79
330477,0.00,-2.6,-41.1,304.4,0.8280,0.2994,0.1861,0.4359,0.02,-0.12,-0.17,43.243064,-0.040746,-0.10,1,434.79
330477,0.00,-2.6,-41.1,304.4,0.8280,0.2994,0.1861,0.4359,0.02,-0.12,-0.17,43.243064,-0.040746,-0.10,1,434.79
330477,0.00,-2.6,-41.1,304.4,0.8280,0.2994,0.1861,0.4359,0.02,-0.12,-0.17,43.243064,-0.040746,-0.10,1,434.79
330477,0.00,-2.6,-41.1,304.4,0.8280,0.2994,0.1861,0.4359,0.02,-0.12,-0.17,43.243064,-0.040746,-0.10,1,434.79
330477,0.00,-2.6,-41.1,304.4,0.8280,0.2994,0.1861,0.4359,0.02,-0.12,-0.17,43.243064,-0.040746,-0.10,1,434.79
330490,0.00,-2.6,-41.2,304.4,0.8280,0.2996,0.1864,0.4357,-0.05,-0.13,-0.12,43.243064,-0.040746,-0.10,1,434.79
330490,0.00,-2.6,-41.2,304.4,0.8280,0.2996,0.1864,0.4357,-0.05,-0.13,-0.12,43.243064,-0.040746,-0.10,1,434.79
330490,0.00,-2.6,-41.2,304.4,0.8280,0.2996,0.1864,0.4357,-0.05,-0.13,-0.12,43.243064,-0.040746,-0.10,1,434.79
330490,0.00,-2.6,-41.2,304.4,0.8280,0.2996,0.1864,0.4357,-0.05,-0.13,-0.12,43.243064,-0.040746,-0.10,1,434.79
330490,0.00,-2.6,-41.2,304.4,0.8280,0.2996,0.1864,0.4357,-0.05,-0.13,-0.12,43.243064,-0.040746,-0.10,1,434.79
330502,0.00,-2.6,-41.2,304.4,0.8279,0.2996,0.1865,0.4357,-0.19,-0.05,-0.17,43.243064,-0.040746,-0.30,1,434.79
330502,0.00,-2.6,-41.2,304.4,0.8279,0.2996,0.1865,0.4357,-0.19,-0.05,-0.17,43.243064,-0.040746,-0.30,1,434.79
330502,0.00,-2.6,-41.2,304.4,0.8279,0.2996,0.1865,0.4357,-0.19,-0.05,-0.17,43.243064,-0.040746,-0.30,1,434.79
330502,0.00,-2.6,-41.2,304.4,0.8279,0.2996,0.1865,0.4357,-0.19,-0.05,-0.17,43.243064,-0.040746,-0.30,1,434.79
330502,0.00,-2.6,-41.2,304.4,0.8279,0.2996,0.1865,0.4357,-0.19,-0.05,-0.17,43.243064,-0.040746,-0.30,1,434.79
330515,0.00,-2.6,-41.2,304.4,0.8278,0.2997,0.1865,0.4357,-0.07,-0.03,-0.25,43.243064,-0.040746,-0.30,1,434.79
330515,0.00,-2.6,-41.2,304.4,0.8278,0.2997,0.1865,0.4357,-0.07,-0.03,-0.25,43.243064,-0.040746,-0.30,1,434.79
330515,0.00,-2.6,-41.2,304.4,0.8278,0.2997,0.1865,0.4357,-0.07,-0.03,-0.25,43.243064,-0.040746,-0.30,1,434.79
330515,0.00,-2.6,-41.2,304.4,0.8278,0.2997,0.1865,0.4357,-0.07,-0.03,-0.25,43.243064,-0.040746,-0.30,1,434.79
330515,0.00,-2.6,-41.2,304.4,0.8278,0.2997,0.1865,0.4357,-0.07,-0.03,-0.25,43.243064,-0.040746,-0.30,1,434.79
330528,0.00,-2.6,-41.2,304.4,0.8279,0.2998,0.1864,0.4357,0.05,-0.12,-0.27,43.243064,-0.040746,-0.30,1,434.79
330528,0.00,-2.6,-41.2,304.4,0.8279,0.2998,0.1864,0.4357,0.05,-0.12,-0.27,43.243064,-0.040746,-0.30,1,434.79
330528,0.00,-2.6,-41.2,304.4,0.8279,0.2998,0.1864,0.4357,0.05,-0.12,-0.27,43.243064,-0.040746,-0.30,1,434.79
330528,0.00,-2.6,-41.2,304.4,0.8279,0.2998,0.1864,0.4357,0.05,-0.12,-0.27,43.243064,-0.040746,-0.30,1,434.79
330528,0.00,-2.6,-41.2,304.4,0.8279,0.2998,0.1864,0.4357,0.05,-0.12,-0.27,43.243064,-0.040746,-0.30,1,434.79
330541,0.00,-2.6,-41.2,304.4,0.8280,0.2998,0.1862,0.4357,0.05,-0.12,-0.25,43.243064,-0.040746,-0.30,1,434.79
330541,0.00,-2.6,-41.2,304.4,0.8280,0.2998,0.1862,0.4357,0.05,-0.12,-0.25,43.243064,-0.040746,-0.30,1,434.79
330541,0.00,-2.6,-41.2,304.4,0.8280,0.2998,0.1862,0.4357,0.05,-0.12,-0.25,43.243064,-0.040746,-0.30,1,434.79
330541,0.00,-2.6,-41.2,304.4,0.8280,0.2998,0.1862,0.4357,0.05,-0.12,-0.25,43.243064,-0.040746,-0.30,1,434.79
330541,0.00,-2.6,-41.2,304.4,0.8280,0.2998,0.1862,0.4357,0.05,-0.12,-0.25,43.243064,-0.040746,-0.30,1,434.79
330554,0.00,-2.6,-41.2,304.4,0.8279,0.2998,0.1861,0.4358,0.00,-0.17,-0.12,43.243064,-0.040746,-0.51,1,434.79
330554,0.00,-2.6,-41.2,304.4,0.8279,0.2998,0.1861,0.4358,0.00,-0.17,-0.12,43.243064,-0.040746,-0.51,1,434.79
330554,0.00,-2.6,-41.2,304.4,0.8279,0.2998,0.1861,0.4358,0.00,-0.17,-0.12,43.243064,-0.040746,-0.51,1,434.79
330554,0.00,-2.6,-41.2,304.4,0.8279,0.2998,0.1861,0.4358,0.00,-0.17,-0.12,43.243064,-0.040746,-0.51,1,434.79
330554,0.00,-2.6,-41.2,304.4,0.8279,0.2998,0.1861,0.4358,0.00,-0.17,-0.12,43.243064,-0.040746,-0.51,1,434.79
330566,0.00,-2.6,-41.2,304.4,0.8278,0.2997,0.1862,0.4360,-0.09,-0.07,-0.10,43.243064,-0.040746,-0.51,1,434.79
330566,0.00,-2.6,-41.2,304.4,0.8278,0.2997,0.1862,0.4360,-0.09,-0.07,-0.10,43.243064,-0.040746,-0.51,1,434.79
330566,0.00,-2.6,-41.2,304.4,0.8278,0.2997,0.1862,0.4360,-0.09,-0.07,-0.10,43.243064,-0.040746,-0.51,1,434.79
330566,0.00,-2.6,-41.2,304.4,0.8278,0.2997,0.1862,0.4360,-0.09,-0.07,-0.10,43.243064,-0.040746,-0.51,1,434.79
330566,0.00,-2.6,-41.2,304.4,0.8278,0.2997,0.1862,0.4360,-0.09,-0.07,-0.10,43.243064,-0.040746,-0.51,1,434.79
330579,0.00,-2.6,-41.2,304.4,0.8277,0.2997,0.1862,0.4362,-0.09,-0.07,-0.11,43.243064,-0.040746,-0.51,1,434.79
330579,0.00,-2.6,-41.2,304.4,0.8277,0.2997,0.1862,0.4362,-0.09,-0.07,-0.11,43.243064,-0.040746,-0.51,1,434.79
330579,0.00,-2.6,-41.2,304.4,0.8277,0.2997,0.1862,0.4362,-0.09,-0.07,-0.11,43.243064,-0.040746,-0.51,1,434.79
330579,0.00,-2.6,-41.2,304.4,0.8277,0.2997,0.1862,0.4362,-0.09,-0.07,-0.11,43.243064,-0.040746,-0.51,1,434.79
330579,0.00,-2.6,-41.2,304.4,0.8277,0.2997,0.1862,0.4362,-0.09,-0.07,-0.11,43.243064,-0.040746,-0.51,1,434.79
330592,0.00,-2.6,-41.2,304.3,0.8276,0.2997,0.1862,0.4363,-0.07,-0.05,-0.10,43.243064,-0.040746,-0.51,1,434.79
330592,0.00,-2.6,-41.2,304.3,0.8276,0.2997,0.1862,0.4363,-0.07,-0.05,-0.10,43.243064,-0.040746,-0.51,1,434.79
330592,0.00,-2.6,-41.2,304.3,0.8276,0.2997,0.1862,0.4363,-0.07,-0.05,-0.10,43.243064,-0.040746,-0.51,1,434.79
330592,0.00,-2.6,-41.2,304.3,0.8276,0.2997,0.1862,0.4363,-0.07,-0.05,-0.10,43.243064,-0.040746,-0.51,1,434.79
330592,0.00,-2.6,-41.2,304.3,0.8276,0.2997,0.1862,0.4363,-0.07,-0.05,-0.10,43.243064,-0.040746,-0.51,1,434.79
330604,0.00,-2.6,-41.1,304.3,0.8276,0.2997,0.1860,0.4364,0.00,-0.11,-0.11,43.243064,-0.040746,-0.78,1,434.79
330604,0.00,-2.6,-41.1,304.3,0.8276,0.2997,0.1860,0.4364,0.00,-0.11,-0.11,43.243064,-0.040746,-0.78,1,434.79
330604,0.00,-2.6,-41.1,304.3,0.8276,0.2997,0.1860,0.4364,0.00,-0.11,-0.11,43.243064,-0.040746,-0.78,1,434.79
330604,0.00,-2.6,-41.1,304.3,0.8276,0.2997,0.1860,0.4364,0.00,-0.11,-0.11,43.243064,-0.040746,-0.78,1,434.79
330604,0.00,-2.6,-41.1,304.3,0.8276,0.2997,0.1860,0.4364,0.00,-0.11,-0.11,43.243064,-0.040746,-0.78,1,434.79
330617,0.00,-2.5,-41.1,304.3,0.8276,0.2998,0.1854,0.4367,0.25,-0.23,-0.11,43.243064,-0.040746,-0.78,1,434.79
330617,0.00,-2.5,-41.1,304.3,0.8276,0.2998,0.1854,0.4367,0.25,-0.23,-0.11,43.243064,-0.040746,-0.78,1,434.79
330617,0.00,-2.5,-41.1,304.3,0.8276,0.2998,0.1854,0.4367,0.25,-0.23,-0.11,43.243064,-0.040746,-0.78,1,434.79
330617,0.00,-2.5,-41.1,304.3,0.8276,0.2998,0.1854,0.4367,0.25,-0.23,-0.11,43.243064,-0.040746,-0.78,1,434.79
330617,0.00,-2.5,-41.1,304.3,0.8276,0.2998,0.1854,0.4367,0.25,-0.23,-0.11,43.243064,-0.040746,-0.78,1,434.79
330630,0.00,-2.5,-41.1,304.3,0.8276,0.2998,0.1852,0.4367,0.25,-0.27,-0.10,43.243064,-0.040746,-0.78,1,434.79
330630,0.00,-2.5,-41.1,304.3,0.8276,0.2998,0.1852,0.4367,0.25,-0.27,-0.10,43.243064,-0.040746,-0.78,1,434.79
330630,0.00,-2.5,-41.1,304.3,0.8276,0.2998,0.1852,0.4367,0.25,-0.27,-0.10,43.243064,-0.040746,-0.78,1,434.79
330630,0.00,-2.5,-41.1,304.3,0.8276,0.2998,0.1852,0.4367,0.25,-0.27,-0.10,43.243064,-0.040746,-0.78,1,434.79
330630,0.00,-2.5,-41.1,304.3,0.8276,0.2998,0.1852,0.4367,0.25,-0.27,-0.10,43.243064,-0.040746,-0.78,1,434.79
330643,0.00,-2.5,-41.1,304.3,0.8276,0.2998,0.1852,0.4367,0.17,-0.25,-0.05,43.243064,-0.040746,-0.78,1,434.79
330643,0.00,-2.5,-41.1,304.3,0.8276,0.2998,0.1852,0.4367,0.17,-0.25,-0.05,43.243064,-0.040746,-0.78,1,434.79
330643,0.00,-2.5,-41.1,304.3,0.8276,0.2998,0.1852,0.4367,0.17,-0.25,-0.05,43.243064,-0.040746,-0.78,1,434.79
330643,0.00,-2.5,-41.1,304.3,0.8276,0.2998,0.1852,0.4367,0.17,-0.25,-0.05,43.243064,-0.040746,-0.78,1,434.79
330643,0.00,-2.5,-41.1,304.3,0.8276,0.2998,0.1852,0.4367,0.17,-0.25,-0.05,43.243064,-0.040746,-0.78,1,434.79
330656,0.00,-2.5,-41.1,304.3,0.8276,0.2998,0.1854,0.4366,-0.09,-0.01,-0.02,43.243064,-0.040748,-1.06,1,434.79
330656,0.00,-2.5,-41.1,304.3,0.8276,0.2998,0.1854,0.4366,-0.09,-0.01,-0.02,43.243064,-0.040748,-1.06,1,434.79
330656,0.00,-2.5,-41.1,304.3,0.8276,0.2998,0.1854,0.4366,-0.09,-0.01,-0.02,43.243064,-0.040748,-1.06,1,434.79
330656,0.00,-2.5,-41.1,304.3,0.8276,0.2998,0.1854,0.4366,-0.09,-0.01,-0.02,43.243064,-0.040748,-1.06,1,434.79
330656,0.00,-2.5,-41.1,304.3,0.8276,0.2998,0.1854,0.4366,-0.09,-0.01,-0.02,43.243064,-0.040748,-1.06,1,434.79
330668,0.00,-2.5,-41.1,304.3,0.8277,0.2997,0.1855,0.4365,-0.10,0.03,-0.07,43.243064,-0.040748,-1.06,1,434.79
330668,0.00,-2.5,-41.1,304.3,0.8277,0.2997,0.1855,0.4365,-0.10,0.03,-0.07,43.243064,-0.040748,-1.06,1,434.79
330668,0.00,-2.5,-41.1,304.3,0.8277,0.2997,0.1855,0.4365,-0.10,0.03,-0.07,43.243064,-0.040748,-1.06,1,434.79
330668,0.00,-2.5,-41.1,304.3,0.8277,0.2997,0.1855,0.4365,-0.10,0.03,-0.07,43.243064,-0.040748,-1.06,1,434.79
330668,0.00,-2.5,-41.1,304.3,0.8277,0.2997,0.1855,0.4365,-0.10,0.03,-0.07,43.243064,-0.040748,-1.06,1,434.79
330681,0.00,-2.5,-41.1,304.3,0.8276,0.2998,0.1854,0.4366,-0.05,0.00,-0.11,43.243064,-0.040748,-1.06,1,434.79
330681,0.00,-2.5,-41.1,304.3,0.8276,0.2998,0.1854,0.4366,-0.05,0.00,-0.11,43.243064,-0.040748,-1.06,1,434.79
330681,0.00,-2.5,-41.1,304.3,0.8276,0.2998,0.1854,0.4366,-0.05,0.00,-0.11,43.243064,-0.040748,-1.06,1,434.79
330681,0.00,-2.5,-41.1,304.3,0.8276,0.2998,0.1854,0.4366,-0.05,0.00,-0.11,43.243064,-0.040748,-1.06,1,434.79
330681,0.00,-2.5,-41.1,304.3,0.8276,0.2998,0.1854,0.4366,-0.05,0.00,-0.11,43.243064,-0.040748,-1.06,1,434.79
330694,0.00,-2.5,-41.1,304.3,0.8275,0.2999,0.1851,0.4368,0.15,-0.19,-0.19,43.243064,-0.040748,-1.06,1,434.79
330694,0.00,-2.5,-41.1,304.3,0.8275,0.2999,0.1851,0.4368,0.15,-0.19,-0.19,43.243064,-0.040748,-1.06,1,434.79
330694,0.00,-2.5,-41.1,304.3,0.8275,0.2999,0.1851,0.4368,0.15,-0.19,-0.19,43.243064,-0.040748,-1.06,1,434.79
330694,0.00,-2.5,-41.1,304.3,0.8275,0.2999,0.1851,0.4368,0.15,-0.19,-0.19,43.243064,-0.040748,-1.06,1,434.79
330694,0.00,-2.5,-41.1,304.3,0.8275,0.2999,0.1851,0.4368,0.15,-0.19,-0.19,43.243064,-0.040748,-1.06,1,434.79
330707,0.00,-2.4,-41.1,304.3,0.8275,0.3001,0.1848,0.4370,0.25,-0.25,-0.22,43.243064,-0.040748,-1.36,1,434.79
330707,0.00,-2.4,-41.1,304.3,0.8275,0.3001,0.1848,0.4370,0.25,-0.25,-0.22,43.243064,-0.040748,-1.36,1,434.79
330707,0.00,-2.4,-41.1,304.3,0.8275,0.3001,0.1848,0.4370,0.25,-0.25,-0.22,43.243064,-0.040748,-1.36,1,434.79
330707,0.00,-2.4,-41.1,304.3,0.8275,0.3001,0.1848,0.4370,0.25,-0.25,-0.22,43.243064,-0.040748,-1.36,1,434.79
330707,0.00,-2.4,-41.1,304.3,0.8275,0.3001,0.1848,0.4370,0.25,-0.25,-0.22,43.243064,-0.040748,-1.36,1,434.79
330719,0.00,-2.4,-41.1,304.2,0.8275,0.3001,0.1842,0.4371,0.28,-0.30,-0.22,43.243064,-0.040748,-1.36,1,434.89
330719,0.00,-2.4,-41.1,304.2,0.8275,0.3001,0.1842,0.4371,0.28,-0.30,-0.22,43.243064,-0.040748,-1.36,1,434.89
330719,0.00,-2.4,-41.1,304.2,0.8275,0.3001,0.1842,0.4371,0.28,-0.30,-0.22,43.243064,-0.040748,-1.36,1,434.89
330719,0.00,-2.4,-41.1,304.2,0.8275,0.3001,0.1842,0.4371,0.28,-0.30,-0.22,43.243064,-0.040748,-1.36,1,434.89
330719,0.00,-2.4,-41.1,304.2,0.8275,0.3001,0.1842,0.4371,0.28,-0.30,-0.22,43.243064,-0.040748,-1.36,1,434.89
330732,0.00,-2.4,-41.1,304.3,0.8275,0.3001,0.1843,0.4370,0.15,-0.20,-0.20,43.243064,-0.040748,-1.36,1,434.89
330732,0.00,-2.4,-41.1,304.3,0.8275,0.3001,0.1843,0.4370,0.15,-0.20,-0.20,43.243064,-0.040748,-1.36,1,434.89
330732,0.00,-2.4,-41.1,304.3,0.8275,0.3001,0.1843,0.4370,0.15,-0.20,-0.20,43.243064,-0.040748,-1.36,1,434.89
330732,0.00,-2.4,-41.1,304.3,0.8275,0.3001,0.1843,0.4370,0.15,-0.20,-0.20,43.243064,-0.040748,-1.36,1,434.89
330732,0.00,-2.4,-41.1,304.3,0.8275,0.3001,0.1843,0.4370,0.15,-0.20,-0.20,43.243064,-0.040748,-1.36,1,434.89
330745,0.00,-2.5,-41.1,304.3,0.8277,0.2999,0.1848,0.4367,0.00,-0.02,-0.07,43.243064,-0.040748,-1.36,1,434.89
330745,0.00,-2.5,-41.1,304.3,0.8277,0.2999,0.1848,0.4367,0.00,-0.02,-0.07,43.243064,-0.040748,-1.36,1,434.89
330745,0.00,-2.5,-41.1,304.3,0.8277,0.2999,0.1848,0.4367,0.00,-0.02,-0.07,43.243064,-0.040748,-1.36,1,434.89
330745,0.00,-2.5,-41.1,304.3,0.8277,0.2999,0.1848,0.4367,0.00,-0.02,-0.07,43.243064,-0.040748,-1.36,1,434.89
330745,0.00,-2.5,-41.1,304.3,0.8277,0.2999,0.1848,0.4367,0.00,-0.02,-0.07,43.243064,-0.040748,-1.36,1,434.89
330757,0.00,-2.5,-41.1,304.3,0.8277,0.2998,0.1851,0.4365,-0.11,-0.02,-0.11,43.243064,-0.040748,-1.64,1,434.89
330757,0.00,-2.5,-41.1,304.3,0.8277,0.2998,0.1851,0.4365,-0.11,-0.02,-0.11,43.243064,-0.040748,-1.64,1,434.89
330757,0.00,-2.5,-41.1,304.3,0.8277,0.2998,0.1851,0.4365,-0.11,-0.02,-0.11,43.243064,-0.040748,-1.64,1,434.89
330757,0.00,-2.5,-41.1,304.3,0.8277,0.2998,0.1851,0.4365,-0.11,-0.02,-0.11,43.243064,-0.040748,-1.64,1,434.89
330757,0.00,-2.5,-41.1,304.3,0.8277,0.2998,0.1851,0.4365,-0.11,-0.02,-0.11,43.243064,-0.040748,-1.64,1,434.89
330770,0.00,-2.5,-41.1,304.3,0.8277,0.2998,0.1852,0.4365,-0.15,-0.03,-0.15,43.243064,-0.040748,-1.64,1,434.89
330770,0.00,-2.5,-41.1,304.3,0.8277,0.2998,0.1852,0.4365,-0.15,-0.03,-0.15,43.243064,-0.040748,-1.64,1,434.89
330770,0.00,-2.5,-41.1,304.3,0.8277,0.2998,0.1852,0.4365,-0.15,-0.03,-0.15,43.243064,-0.040748,-1.64,1,434.89
330770,0.00,-2.5,-41.1,304.3,0.8277,0.2998,0.1852,0.4365,-0.15,-0.03,-0.15,43.243064,-0.040748,-1.64,1,434.89
330770,0.00,-2.5,-41.1,304.3,0.8277,0.2998,0.1852,0.4365,-0.15,-0.03,-0.15,43.243064,-0.040748,-1.64,1,434.89
330783,0.00,-2.5,-41.1,304.3,0.8277,0.2998,0.1852,0.4365,-0.12,-0.05,-0.07,43.243064,-0.040748,-1.64,1,434.89
330783,0.00,-2.5,-41.1,304.3,0.8277,0.2998,0.1852,0.4365,-0.12,-0.05,-0.07,43.243064,-0.040748,-1.64,1,434.89
330783,0.00,-2.5,-41.1,304.3,0.8277,0.2998,0.1852,0.4365,-0.12,-0.05,-0.07,43.243064,-0.040748,-1.64,1,434.89
330783,0.00,-2.5,-41.1,304.3,0.8277,0.2998,0.1852,0.4365,-0.12,-0.05,-0.07,43.243064,-0.040748,-1.64,1,434.89
330783,0.00,-2.5,-41.1,304.3,0.8277,0.2998,0.1852,0.4365,-0.12,-0.05,-0.07,43.243064,-0.040748,-1.64,1,434.89
330796,0.00,-2.5,-41.1,304.3,0.8277,0.2998,0.1850,0.4366,-0.00,-0.09,-0.09,43.243064,-0.040748,-1.64,1,434.89
330796,0.00,-2.5,-41.1,304.3,0.8277,0.2998,0.1850,0.4366,-0.00,-0.09,-0.09,43.243064,-0.040748,-1.64,1,434.89
330796,0.00,-2.5,-41.1,304.3,0.8277,0.2998,0.1850,0.4366,-0.00,-0.09,-0.09,43.243064,-0.040748,-1.64,1,434.89
330796,0.00,-2.5,-41.1,304.3,0.8277,0.2998,0.1850,0.4366,-0.00,-0.09,-0.09,43.243064,-0.040748,-1.64,1,434.89
330796,0.00,-2.5,-41.1,304.3,0.8277,0.2998,0.1850,0.4366,-0.00,-0.09,-0.09,43.243064,-0.040748,-1.64,1,434.89
330808,0.00,-2.5,-41.1,304.3,0.8276,0.2998,0.1849,0.4368,0.00,-0.11,-0.02,43.243064,-0.040748,-1.84,1,434.89
330808,0.00,-2.5,-41.1,304.3,0.8276,0.2998,0.1849,0.4368,0.00,-0.11,-0.02,43.243064,-0.040748,-1.84,1,434.89
330808,0.00,-2.5,-41.1,304.3,0.8276,0.2998,0.1849,0.4368,0.00,-0.11,-0.02,43.243064,-0.040748,-1.84,1,434.89
330808,0.00,-2.5,-41.1,304.3,0.8276,0.2998,0.1849,0.4368,0.00,-0.11,-0.02,43.243064,-0.040748,-1.84,1,434.89
330808,0.00,-2.5,-41.1,304.3,0.8276,0.2998,0.1849,0.4368,0.00,-0.11,-0.02,43.243064,-0.040748,-1.84,1,434.89
330821,0.00,-2.5,-41.1,304.3,0.8276,0.2998,0.1846,0.4369,0.05,-0.22,-0.07,43.243064,-0.040748,-1.84,1,434.89
330821,0.00,-2.5,-41.1,304.3,0.8276,0.2998,0.1846,0.4369,0.05,-0.22,-0.07,43.243064,-0.040748,-1.84,1,434.89
330821,0.00,-2.5,-41.1,304.3,0.8276,0.2998,0.1846,0.4369,0.05,-0.22,-0.07,43.243064,-0.040748,-1.84,1,434.89
330821,0.00,-2.5,-41.1,304.3,0.8276,0.2998,0.1846,0.4369,0.05,-0.22,-0.07,43.243064,-0.040748,-1.84,1,434.89
330821,0.00,-2.5,-41.1,304.3,0.8276,0.2998,0.1846,0.4369,0.05,-0.22,-0.07,43.243064,-0.040748,-1.84,1,434.89
330834,0.00,-2.4,-41.1,304.3,0.8276,0.2998,0.1846,0.4370,0.01,-0.20,-0.05,43.243064,-0.040748,-1.84,1,434.89
330834,0.00,-2.4,-41.1,304.3,0.8276,0.2998,0.1846,0.4370,0.01,-0.20,-0.05,43.243064,-0.040748,-1.84,1,434.89
330834,0.00,-2.4,-41.1,304.3,0.8276,0.2998,0.1846,0.4370,0.01,-0.20,-0.05,43.243064,-0.040748,-1.84,1,434.89
330834,0.00,-2.4,-41.1,304.3,0.8276,0.2998,0.1846,0.4370,0.01,-0.20,-0.05,43.243064,-0.040748,-1.84,1,434.89
330834,0.00,-2.4,-41.1,304.3,0.8276,0.2998,0.1846,0.4370,0.01,-0.20,-0.05,43.243064,-0.040748,-1.84,1,434.89
330847,0.00,-2.5,-41.1,304.3,0.8277,0.2998,0.1846,0.4368,-0.07,-0.12,-0.15,43.243064,-0.040748,-1.84,1,434.89
330847,0.00,-2.5,-41.1,304.3,0.8277,0.2998,0.1846,0.4368,-0.07,-0.12,-0.15,43.243064,-0.040748,-1.84,1,434.89
330847,0.00,-2.5,-41.1,304.3,0.8277,0.2998,0.1846,0.4368,-0.07,-0.12,-0.15,43.243064,-0.040748,-1.84,1,434.89
330847,0.00,-2.5,-41.1,304.3,0.8277,0.2998,0.1846,0.4368,-0.07,-0.12,-0.15,43.243064,-0.040748,-1.84,1,434.89
330847,0.00,-2.5,-41.1,304.3,0.8277,0.2998,0.1846,0.4368,-0.07,-0.12,-0.15,43.243064,-0.040748,-1.84,1,434.89
330859,0.00,-2.4,-41.1,304.3,0.8277,0.2998,0.1845,0.4368,-0.07,-0.11,-0.27,43.243064,-0.040748,-2.07,1,434.89
330859,0.00,-2.4,-41.1,304.3,0.8277,0.2998,0.1845,0.4368,-0.07,-0.11,-0.27,43.243064,-0.040748,-2.07,1,434.89
330859,0.00,-2.4,-41.1,304.3,0.8277,0.2998,0.1845,0.4368,-0.07,-0.11,-0.27,43.243064,-0.040748,-2.07,1,434.89
330859,0.00,-2.4,-41.1,304.3,0.8277,0.2998,0.1845,0.4368,-0.07,-0.11,-0.27,43.243064,-0.040748,-2.07,1,434.89
330859,0.00,-2.4,-41.1,304.3,0.8277,0.2998,0.1845,0.4368,-0.07,-0.11,-0.27,43.243064,-0.040748,-2.07,1,434.89
330872,0.00,-2.4,-41.1,304.3,0.8278,0.2998,0.1843,0.4368,-0.09,-0.11,-0.34,43.243064,-0.040748,-2.07,1,434.89
330872,0.00,-2.4,-41.1,304.3,0.8278,0.2998,0.1843,0.4368,-0.09,-0.11,-0.34,43.243064,-0.040748,-2.07,1,434.89
330872,0.00,-2.4,-41.1,304.3,0.8278,0.2998,0.1843,0.4368,-0.09,-0.11,-0.34,43.243064,-0.040748,-2.07,1,434.89
330872,0.00,-2.4,-41.1,304.3,0.8278,0.2998,0.1843,0.4368,-0.09,-0.11,-0.34,43.243064,-0.040748,-2.07,1,434.89
330872,0.00,-2.4,-41.1,304.3,0.8278,0.2998,0.1843,0.4368,-0.09,-0.11,-0.34,43.243064,-0.040748,-2.07,1,434.89
330885,0.00,-2.4,-41.1,304.3,0.8278,0.2998,0.1841,0.4368,0.07,-0.11,-0.33,43.243064,-0.040748,-2.07,1,434.89
330885,0.00,-2.4,-41.1,304.3,0.8278,0.2998,0.1841,0.4368,0.07,-0.11,-0.33,43.243064,-0.040748,-2.07,1,434.89
330885,0.00,-2.4,-41.1,304.3,0.8278,0.2998,0.1841,0.4368,0.07,-0.11,-0.33,43.243064,-0.040748,-2.07,1,434.89
330885,0.00,-2.4,-41.1,304.3,0.8278,0.2998,0.1841,0.4368,0.07,-0.11,-0.33,43.243064,-0.040748,-2.07,1,434.89
330885,0.00,-2.4,-41.1,304.3,0.8278,0.2998,0.1841,0.4368,0.07,-0.11,-0.33,43.243064,-0.040748,-2.07,1,434.89
330898,0.00,-2.4,-41.0,304.3,0.8278,0.2996,0.1838,0.4370,0.10,-0.15,-0.25,43.243064,-0.040748,-2.07,1,434.89
330898,0.00,-2.4,-41.0,304.3,0.8278,0.2996,0.1838,0.4370,0.10,-0.15,-0.25,43.243064,-0.040748,-2.07,1,434.89
330898,0.00,-2.4,-41.0,304.3,0.8278,0.2996,0.1838,0.4370,0.10,-0.15,-0.25,43.243064,-0.040748,-2.07,1,434.89
330898,0.00,-2.4,-41.0,304.3,0.8278,0.2996,0.1838,0.4370,0.10,-0.15,-0.25,43.243064,-0.040748,-2.07,1,434.89
330898,0.00,-2.4,-41.0,304.3,0.8278,0.2996,0.1838,0.4370,0.10,-0.15,-0.25,43.243064,-0.040748,-2.07,1,434.89
330910,0.00,-2.3,-41.0,304.3,0.8278,0.2996,0.1838,0.4371,-0.00,-0.10,-0.18,43.243064,-0.040748,-2.29,1,434.89
330910,0.00,-2.3,-41.0,304.3,0.8278,0.2996,0.1838,0.4371,-0.00,-0.10,-0.18,43.243064,-0.040748,-2.29,1,434.89
330910,0.00,-2.3,-41.0,304.3,0.8278,0.2996,0.1838,0.4371,-0.00,-0.10,-0.18,43.243064,-0.040748,-2.29,1,434.89
330910,0.00,-2.3,-41.0,304.3,0.8278,0.2996,0.1838,0.4371,-0.00,-0.10,-0.18,43.243064,-0.040748,-2.29,1,434.89
330910,0.00,-2.3,-41.0,304.3,0.8278,0.2996,0.1838,0.4371,-0.00,-0.10,-0.18,43.243064,-0.040748,-2.29,1,434.89
330923,0.00,-2.3,-41.0,304.2,0.8278,0.2995,0.1838,0.4372,-0.05,-0.12,-0.13,43.243064,-0.040748,-2.29,1,434.89
330923,0.00,-2.3,-41.0,304.2,0.8278,0.2995,0.1838,0.4372,-0.05,-0.12,-0.13,43.243064,-0.040748,-2.29,1,434.89
330923,0.00,-2.3,-41.0,304.2,0.8278,0.2995,0.1838,0.4372,-0.05,-0.12,-0.13,43.243064,-0.040748,-2.29,1,434.89
330923,0.00,-2.3,-41.0,304.2,0.8278,0.2995,0.1838,0.4372,-0.05,-0.12,-0.13,43.243064,-0.040748,-2.29,1,434.89
330923,0.00,-2.3,-41.0,304.2,0.8278,0.2995,0.1838,0.4372,-0.05,-0.12,-0.13,43.243064,-0.040748,-2.29,1,434.89
330936,0.00,-2.3,-41.0,304.2,0.8278,0.2994,0.1838,0.4373,-0.03,-0.11,-0.11,43.243064,-0.040748,-2.29,1,434.89
330936,0.00,-2.3,-41.0,304.2,0.8278,0.2994,0.1838,0.4373,-0.03,-0.11,-0.11,43.243064,-0.040748,-2.29,1,434.89
330936,0.00,-2.3,-41.0,304.2,0.8278,0.2994,0.1838,0.4373,-0.03,-0.11,-0.11,43.243064,-0.040748,-2.29,1,434.89
330936,0.00,-2.3,-41.0,304.2,0.8278,0.2994,0.1838,0.4373,-0.03,-0.11,-0.11,43.243064,-0.040748,-2.29,1,434.89
330936,0.00,-2.3,-41.0,304.2,0.8278,0.2994,0.1838,0.4373,-0.03,-0.11,-0.11,43.243064,-0.040748,-2.29,1,434.89
330949,0.00,-2.3,-41.0,304.2,0.8278,0.2992,0.1837,0.4373,-0.05,-0.07,-0.12,43.243064,-0.040748,-2.29,1,434.89
330949,0.00,-2.3,-41.0,304.2,0.8278,0.2992,0.1837,0.4373,-0.05,-0.07,-0.12,43.243064,-0.040748,-2.29,1,434.89
330949,0.00,-2.3,-41.0,304.2,0.8278,0.2992,0.1837,0.4373,-0.05,-0.07,-0.12,43.243064,-0.040748,-2.29,1,434.89
330949,0.00,-2.3,-41.0,304.2,0.8278,0.2992,0.1837,0.4373,-0.05,-0.07,-0.12,43.243064,-0.040748,-2.29,1,434.89
330949,0.00,-2.3,-41.0,304.2,0.8278,0.2992,0.1837,0.4373,-0.05,-0.07,-0.12,43.243064,-0.040748,-2.29,1,434.89
330962,0.00,-2.3,-41.0,304.2,0.8278,0.2991,0.1837,0.4374,-0.00,-0.07,-0.11,43.243064,-0.040748,-2.51,1,434.89
330962,0.00,-2.3,-41.0,304.2,0.8278,0.2991,0.1837,0.4374,-0.00,-0.07,-0.11,43.243064,-0.040748,-2.51,1,434.89
330962,0.00,-2.3,-41.0,304.2,0.8278,0.2991,0.1837,0.4374,-0.00,-0.07,-0.11,43.243064,-0.040748,-2.51,1,434.89
330962,0.00,-2.3,-41.0,304.2,0.8278,0.2991,0.1837,0.4374,-0.00,-0.07,-0.11,43.243064,-0.040748,-2.51,1,434.89
330962,0.00,-2.3,-41.0,304.2,0.8278,0.2991,0.1837,0.4374,-0.00,-0.07,-0.11,43.243064,-0.040748,-2.51,1,434.89
330974,0.00,-2.3,-41.0,304.2,0.8279,0.2990,0.1835,0.4375,0.00,-0.05,-0.07,43.243064,-0.040748,-2.51,1,434.89
330974,0.00,-2.3,-41.0,304.2,0.8279,0.2990,0.1835,0.4375,0.00,-0.05,-0.07,43.243064,-0.040748,-2.51,1,434.89
330974,0.00,-2.3,-41.0,304.2,0.8279,0.2990,0.1835,0.4375,0.00,-0.05,-0.07,43.243064,-0.040748,-2.51,1,434.89
330974,0.00,-2.3,-41.0,304.2,0.8279,0.2990,0.1835,0.4375,0.00,-0.05,-0.07,43.243064,-0.040748,-2.51,1,434.89
330974,0.00,-2.3,-41.0,304.2,0.8279,0.2990,0.1835,0.4375,0.00,-0.05,-0.07,43.243064,-0.040748,-2.51,1,434.89
330987,0.00,-2.3,-41.0,304.2,0.8279,0.2988,0.1835,0.4375,-0.03,-0.05,-0.05,43.243064,-0.040748,-2.51,1,434.89
330987,0.00,-2.3,-41.0,304.2,0.8279,0.2988,0.1835,0.4375,-0.03,-0.05,-0.05,43.243064,-0.040748,-2.51,1,434.89
330987,0.00,-2.3,-41.0,304.2,0.8279,0.2988,0.1835,0.4375,-0.03,-0.05,-0.05,43.243064,-0.040748,-2.51,1,434.89
330987,0.00,-2.3,-41.0,304.2,0.8279,0.2988,0.1835,0.4375,-0.03,-0.05,-0.05,43.243064,-0.040748,-2.51,1,434.89
330987,0.00,-2.3,-41.0,304.2,0.8279,0.2988,0.1835,0.4375,-0.03,-0.05,-0.05,43.243064,-0.040748,-2.51,1,434.89
331000,0.00,-2.3,-40.9,304.2,0.8280,0.2986,0.1834,0.4376,0.11,0.00,-0.02,43.243064,-0.040748,-2.51,1,434.89
331000,0.00,-2.3,-40.9,304.2,0.8280,0.2986,0.1834,0.4376,0.11,0.00,-0.02,43.243064,-0.040748,-2.51,1,434.89
331000,0.00,-2.3,-40.9,304.2,0.8280,0.2986,0.1834,0.4376,0.11,0.00,-0.02,43.243064,-0.040748,-2.51,1,434.89
331000,0.00,-2.3,-40.9,304.2,0.8280,0.2986,0.1834,0.4376,0.11,0.00,-0.02,43.243064,-0.040748,-2.51,1,434.89
331000,0.00,-2.3,-40.9,304.2,0.8280,0.2986,0.1834,0.4376,0.11,0.00,-0.02,43.243064,-0.040748,-2.51,1,434.89
331012,0.00,-2.3,-40.9,304.2,0.8280,0.2985,0.1832,0.4377,0.12,-0.05,0.00,43.243064,-0.040748,-2.71,1,434.89
331012,0.00,-2.3,-40.9,304.2,0.8280,0.2985,0.1832,0.4377,0.12,-0.05,0.00,43.243064,-0.040748,-2.71,1,434.89
331012,0.00,-2.3,-40.9,304.2,0.8280,0.2985,0.1832,0.4377,0.12,-0.05,0.00,43.243064,-0.040748,-2.71,1,434.89
331012,0.00,-2.3,-40.9,304.2,0.8280,0.2985,0.1832,0.4377,0.12,-0.05,0.00,43.243064,-0.040748,-2.71,1,434.89
331012,0.00,-2.3,-40.9,304.2,0.8280,0.2985,0.1832,0.4377,0.12,-0.05,0.00,43.243064,-0.040748,-2.71,1,434.89
331025,0.00,-2.3,-40.9,304.1,0.8279,0.2985,0.1831,0.4379,0.09,-0.10,0.00,43.243064,-0.040748,-2.71,1,434.89
331025,0.00,-2.3,-40.9,304.1,0.8279,0.2985,0.1831,0.4379,0.09,-0.10,0.00,43.243064,-0.040748,-2.71,1,434.89
331025,0.00,-2.3,-40.9,304.1,0.8279,0.2985,0.1831,0.4379,0.09,-0.10,0.00,43.243064,-0.040748,-2.71,1,434.89
331025,0.00,-2.3,-40.9,304.1,0.8279,0.2985,0.1831,0.4379,0.09,-0.10,0.00,43.243064,-0.040748,-2.71,1,434.89
331025,0.00,-2.3,-40.9,304.1,0.8279,0.2985,0.1831,0.4379,0.09,-0.10,0.00,43.243064,-0.040748,-2.71,1,434.89
331038,0.00,-2.3,-40.9,304.1,0.8278,0.2985,0.1831,0.4381,0.15,-0.15,0.03,43.243064,-0.040748,-2.71,1,434.89
331038,0.00,-2.3,-40.9,304.1,0.8278,0.2985,0.1831,0.4381,0.15,-0.15,0.03,43.243064,-0.040748,-2.71,1,434.89
331038,0.00,-2.3,-40.9,304.1,0.8278,0.2985,0.1831,0.4381,0.15,-0.15,0.03,43.243064,-0.040748,-2.71,1,434.89
331038,0.00,-2.3,-40.9,304.1,0.8278,0.2985,0.1831,0.4381,0.15,-0.15,0.03,43.243064,-0.040748,-2.71,1,434.89
331038,0.00,-2.3,-40.9,304.1,0.8278,0.2985,0.1831,0.4381,0.15,-0.15,0.03,43.243064,-0.040748,-2.71,1,434.89
331051,0.00,-2.3,-40.8,304.1,0.8278,0.2985,0.1829,0.4382,0.19,-0.17,0.07,43.243064,-0.040748,-2.71,1,434.89
331051,0.00,-2.3,-40.8,304.1,0.8278,0.2985,0.1829,0.4382,0.19,-0.17,0.07,43.243064,-0.040748,-2.71,1,434.89
331051,0.00,-2.3,-40.8,304.1,0.8278,0.2985,0.1829,0.4382,0.19,-0.17,0.07,43.243064,-0.040748,-2.71,1,434.89
331051,0.00,-2.3,-40.8,304.1,0.8278,0.2985,0.1829,0.4382,0.19,-0.17,0.07,43.243064,-0.040748,-2.71,1,434.89
331051,0.00,-2.3,-40.8,304.1,0.8278,0.2985,0.1829,0.4382,0.19,-0.17,0.07,43.243064,-0.040748,-2.71,1,434.89
331063,0.00,-2.3,-40.8,304.1,0.8278,0.2984,0.1829,0.4382,0.18,-0.15,0.05,43.243064,-0.040748,-2.95,1,434.89
331063,0.00,-2.3,-40.8,304.1,0.8278,0.2984,0.1829,0.4382,0.18,-0.15,0.05,43.243064,-0.040748,-2.95,1,434.89
331063,0.00,-2.3,-40.8,304.1,0.8278,0.2984,0.1829,0.4382,0.18,-0.15,0.05,43.243064,-0.040748,-2.95,1,434.89
331063,0.00,-2.3,-40.8,304.1,0.8278,0.2984,0.1829,0.4382,0.18,-0.15,0.05,43.243064,-0.040748,-2.95,1,434.89
331063,0.00,-2.3,-40.8,304.1,0.8278,0.2984,0.1829,0.4382,0.18,-0.15,0.05,43.243064,-0.040748,-2.95,1,434.89
331076,0.00,-2.3,-40.8,304.1,0.8278,0.2984,0.1828,0.4382,0.11,-0.11,-0.07,43.243064,-0.040748,-2.95,1,434.89
331076,0.00,-2.3,-40.8,304.1,0.8278,0.2984,0.1828,0.4382,0.11,-0.11,-0.07,43.243064,-0.040748,-2.95,1,434.89
331076,0.00,-2.3,-40.8,304.1,0.8278,0.2984,0.1828,0.4382,0.11,-0.11,-0.07,43.243064,-0.040748,-2.95,1,434.89
331076,0.00,-2.3,-40.8,304.1,0.8278,0.2984,0.1828,0.4382,0.11,-0.11,-0.07,43.243064,-0.040748,-2.95,1,434.89
331076,0.00,-2.3,-40.8,304.1,0.8278,0.2984,0.1828,0.4382,0.11,-0.11,-0.07,43.243064,-0.040748,-2.95,1,434.89
331089,0.00,-2.3,-40.8,304.1,0.8279,0.2984,0.1828,0.4382,0.11,-0.13,-0.07,43.243064,-0.040748,-2.95,1,434.89
331089,0.00,-2.3,-40.8,304.1,0.8279,0.2984,0.1828,0.4382,0.11,-0.13,-0.07,43.243064,-0.040748,-2.95,1,434.89
331089,0.00,-2.3,-40.8,304.1,0.8279,0.2984,0.1828,0.4382,0.11,-0.13,-0.07,43.243064,-0.040748,-2.95,1,434.89
331089,0.00,-2.3,-40.8,304.1,0.8279,0.2984,0.1828,0.4382,0.11,-0.13,-0.07,43.243064,-0.040748,-2.95,1,434.89
331089,0.00,-2.3,-40.8,304.1,0.8279,0.2984,0.1828,0.4382,0.11,-0.13,-0.07,43.243064,-0.040748,-2.95,1,434.89
331102,0.00,-2.3,-40.8,304.1,0.8279,0.2984,0.1828,0.4382,0.11,-0.13,-0.07,43.243064,-0.040748,-2.95,1,434.89
331102,0.00,-2.3,-40.8,304.1,0.8279,0.2984,0.1828,0.4382,0.11,-0.13,-0.07,43.243064,-0.040748,-2.95,1,434.89
331102,0.00,-2.3,-40.8,304.1,0.8279,0.2984,0.1828,0.4382,0.11,-0.13,-0.07,43.243064,-0.040748,-2.95,1,434.89
331102,0.00,-2.3,-40.8,304.1,0.8279,0.2984,0.1828,0.4382,0.11,-0.13,-0.07,43.243064,-0.040748,-2.95,1,434.89
331102,0.00,-2.3,-40.8,304.1,0.8279,0.2984,0.1828,0.4382,0.11,-0.13,-0.07,43.243064,-0.040748,-2.95,1,434.89
331114,0.00,-2.3,-40.8,304.1,0.8279,0.2984,0.1828,0.4382,0.07,-0.15,-0.15,43.243064,-0.040748,-3.20,1,434.89
331114,0.00,-2.3,-40.8,304.1,0.8279,0.2984,0.1828,0.4382,0.07,-0.15,-0.15,43.243064,-0.040748,-3.20,1,434.89
331114,0.00,-2.3,-40.8,304.1,0.8279,0.2984,0.1828,0.4382,0.07,-0.15,-0.15,43.243064,-0.040748,-3.20,1,434.89
331114,0.00,-2.3,-40.8,304.1,0.8279,0.2984,0.1828,0.4382,0.07,-0.15,-0.15,43.243064,-0.040748,-3.20,1,434.89
331114,0.00,-2.3,-40.8,304.1,0.8279,0.2984,0.1828,0.4382,0.07,-0.15,-0.15,43.243064,-0.040748,-3.20,1,434.89
331127,0.00,-2.3,-40.8,304.1,0.8280,0.2984,0.1828,0.4381,-0.00,-0.09,-0.17,43.243064,-0.040748,-3.20,1,434.89
331127,0.00,-2.3,-40.8,304.1,0.8280,0.2984,0.1828,0.4381,-0.00,-0.09,-0.17,43.243064,-0.040748,-3.20,1,434.89
331127,0.00,-2.3,-40.8,304.1,0.8280,0.2984,0.1828,0.4381,-0.00,-0.09,-0.17,43.243064,-0.040748,-3.20,1,434.89
331127,0.00,-2.3,-40.8,304.1,0.8280,0.2984,0.1828,0.4381,-0.00,-0.09,-0.17,43.243064,-0.040748,-3.20,1,434.89
331127,0.00,-2.3,-40.8,304.1,0.8280,0.2984,0.1828,0.4381,-0.00,-0.09,-0.17,43.243064,-0.040748,-3.20,1,434.89
331140,0.00,-2.3,-40.8,304.2,0.8280,0.2984,0.1829,0.4379,-0.00,-0.07,-0.19,43.243064,-0.040748,-3.20,1,434.89
331140,0.00,-2.3,-40.8,304.2,0.8280,0.2984,0.1829,0.4379,-0.00,-0.07,-0.19,43.243064,-0.040748,-3.20,1,434.89
331140,0.00,-2.3,-40.8,304.2,0.8280,0.2984,0.1829,0.4379,-0.00,-0.07,-0.19,43.243064,-0.040748,-3.20,1,434.89
331140,0.00,-2.3,-40.8,304.2,0.8280,0.2984,0.1829,0.4379,-0.00,-0.07,-0.19,43.243064,-0.040748,-3.20,1,434.89
331140,0.00,-2.3,-40.8,304.2,0.8280,0.2984,0.1829,0.4379,-0.00,-0.07,-0.19,43.243064,-0.040748,-3.20,1,434.89
331153,0.00,-2.3,-40.8,304.2,0.8282,0.2983,0.1830,0.4376,-0.05,-0.03,-0.18,43.243064,-0.040748,-3.20,1,434.89
331153,0.00,-2.3,-40.8,304.2,0.8282,0.2983,0.1830,0.4376,-0.05,-0.03,-0.18,43.243064,-0.040748,-3.20,1,434.89
331153,0.00,-2.3,-40.8,304.2,0.8282,0.2983,0.1830,0.4376,-0.05,-0.03,-0.18,43.243064,-0.040748,-3.20,1,434.89
331153,0.00,-2.3,-40.8,304.2,0.8282,0.2983,0.1830,0.4376,-0.05,-0.03,-0.18,43.243064,-0.040748,-3.20,1,434.89
331153,0.00,-2.3,-40.8,304.2,0.8282,0.2983,0.1830,0.4376,-0.05,-0.03,-0.18,43.243064,-0.040748,-3.20,1,434.89
331166,0.00,-2.3,-40.8,304.2,0.8283,0.2983,0.1831,0.4375,-0.07,-0.09,-0.10,43.243064,-0.040748,-3.44,1,434.89
331166,0.00,-2.3,-40.8,304.2,0.8283,0.2983,0.1831,0.4375,-0.07,-0.09,-0.10,43.243064,-0.040748,-3.44,1,434.89
331166,0.00,-2.3,-40.8,304.2,0.8283,0.2983,0.1831,0.4375,-0.07,-0.09,-0.10,43.243064,-0.040748,-3.44,1,434.89
331166,0.00,-2.3,-40.8,304.2,0.8283,0.2983,0.1831,0.4375,-0.07,-0.09,-0.10,43.243064,-0.040748,-3.44,1,434.89
331166,0.00,-2.3,-40.8,304.2,0.8283,0.2983,0.1831,0.4375,-0.07,-0.09,-0.10,43.243064,-0.040748,-3.44,1,434.89
331178,0.00,-2.3,-40.8,304.3,0.8282,0.2984,0.1829,0.4375,0.00,-0.09,-0.10,43.243064,-0.040748,-3.44,1,434.89
331178,0.00,-2.3,-40.8,304.3,0.8282,0.2984,0.1829,0.4375,0.00,-0.09,-0.10,43.243064,-0.040748,-3.44,1,434.89
331178,0.00,-2.3,-40.8,304.3,0.8282,0.2984,0.1829,0.4375,0.00,-0.09,-0.10,43.243064,-0.040748,-3.44,1,434.89
331178,0.00,-2.3,-40.8,304.3,0.8282,0.2984,0.1829,0.4375,0.00,-0.09,-0.10,43.243064,-0.040748,-3.44,1,434.89
331178,0.00,-2.3,-40.8,304.3,0.8282,0.2984,0.1829,0.4375,0.00,-0.09,-0.10,43.243064,-0.040748,-3.44,1,434.89
331242,0.00,-2.3,-40.8,304.2,0.8281,0.2986,0.1824,0.4378,0.10,-0.19,-0.13,43.243064,-0.040748,-3.67,1,434.89
331242,0.00,-2.3,-40.8,304.2,0.8281,0.2986,0.1824,0.4378,0.10,-0.19,-0.13,43.243064,-0.040748,-3.67,1,434.89
331344,0.00,-2.3,-40.8,304.3,0.8283,0.2984,0.1831,0.4372,-0.09,0.00,-0.05,43.243064,-0.040748,-4.06,1,434.89
331344,0.00,-2.3,-40.8,304.3,0.8283,0.2984,0.1831,0.4372,-0.09,0.00,-0.05,43.243064,-0.040748,-4.06,1,434.89
331344,0.00,-2.3,-40.8,304.3,0.8283,0.2984,0.1831,0.4372,-0.09,0.00,-0.05,43.243064,-0.040748,-4.06,1,434.89
331344,0.00,-2.3,-40.8,304.3,0.8283,0.2984,0.1831,0.4372,-0.09,0.00,-0.05,43.243064,-0.040748,-4.06,1,434.89
331344,0.00,-2.3,-40.8,304.3,0.8283,0.2984,0.1831,0.4372,-0.09,0.00,-0.05,43.243064,-0.040748,-4.06,1,434.89
331446,0.00,-2.2,-40.8,304.1,0.8280,0.2986,0.1821,0.4381,0.13,-0.17,-0.23,43.243064,-0.040748,-4.44,1,435.00
331446,0.00,-2.2,-40.8,304.1,0.8280,0.2986,0.1821,0.4381,0.13,-0.17,-0.23,43.243064,-0.040748,-4.44,1,435.00
331446,0.00,-2.2,-40.8,304.1,0.8280,0.2986,0.1821,0.4381,0.13,-0.17,-0.23,43.243064,-0.040748,-4.44,1,435.00
331446,0.00,-2.2,-40.8,304.1,0.8280,0.2986,0.1821,0.4381,0.13,-0.17,-0.23,43.243064,-0.040748,-4.44,1,435.00
331446,0.00,-2.2,-40.8,304.1,0.8280,0.2986,0.1821,0.4381,0.13,-0.17,-0.23,43.243064,-0.040748,-4.44,1,435.00
331548,0.00,-2.3,-40.8,304.1,0.8280,0.2983,0.1823,0.4381,0.00,-0.07,-0.19,43.243064,-0.040748,-4.77,1,435.00
331548,0.00,-2.3,-40.8,304.1,0.8280,0.2983,0.1823,0.4381,0.00,-0.07,-0.19,43.243064,-0.040748,-4.77,1,435.00
331548,0.00,-2.3,-40.8,304.1,0.8280,0.2983,0.1823,0.4381,0.00,-0.07,-0.19,43.243064,-0.040748,-4.77,1,435.00
331548,0.00,-2.3,-40.8,304.1,0.8280,0.2983,0.1823,0.4381,0.00,-0.07,-0.19,43.243064,-0.040748,-4.77,1,435.00
331650,0.00,-2.3,-40.7,304.1,0.8283,0.2973,0.1826,0.4383,0.05,-0.07,-0.07,43.243064,-0.040748,-5.10,1,435.00
331650,0.00,-2.3,-40.7,304.1,0.8283,0.2973,0.1826,0.4383,0.05,-0.07,-0.07,43.243064,-0.040748,-5.10,1,435.00
331650,0.00,-2.3,-40.7,304.1,0.8283,0.2973,0.1826,0.4383,0.05,-0.07,-0.07,43.243064,-0.040748,-5.10,1,435.00
331650,0.00,-2.3,-40.7,304.1,0.8283,0.2973,0.1826,0.4383,0.05,-0.07,-0.07,43.243064,-0.040748,-5.10,1,435.00
331650,0.00,-2.3,-40.7,304.1,0.8283,0.2973,0.1826,0.4383,0.05,-0.07,-0.07,43.243064,-0.040748,-5.10,1,435.00
331752,0.00,-2.3,-40.5,304.0,0.8283,0.2960,0.1820,0.4393,0.05,-0.10,0.01,43.243057,-0.040752,-5.38,1,435.00
331752,0.00,-2.3,-40.5,304.0,0.8283,0.2960,0.1820,0.4393,0.05,-0.10,0.01,43.243057,-0.040752,-5.38,1,435.00
331752,0.00,-2.3,-40.5,304.0,0.8283,0.2960,0.1820,0.4393,0.05,-0.10,0.01,43.243057,-0.040752,-5.38,1,435.00
331752,0.00,-2.3,-40.5,304.0,0.8283,0.2960,0.1820,0.4393,0.05,-0.10,0.01,43.243057,-0.040752,-5.38,1,435.00
331752,0.00,-2.3,-40.5,304.0,0.8283,0.2960,0.1820,0.4393,0.05,-0.10,0.01,43.243057,-0.040752,-5.38,1,435.00
331867,0.00,-2.6,-40.5,304.2,0.8292,0.2945,0.1835,0.4380,-0.19,0.00,-0.27,43.243057,-0.040752,-5.64,1,435.10
331867,0.00,-2.6,-40.5,304.2,0.8292,0.2945,0.1835,0.4380,-0.19,0.00,-0.27,43.243057,-0.040752,-5.64,1,435.10
331867,0.00,-2.6,-40.5,304.2,0.8292,0.2945,0.1835,0.4380,-0.19,0.00,-0.27,43.243057,-0.040752,-5.64,1,435.10
331867,0.00,-2.6,-40.5,304.2,0.8292,0.2945,0.1835,0.4380,-0.19,0.00,-0.27,43.243057,-0.040752,-5.64,1,435.10
331931,0.00,-2.6,-40.4,304.1,0.8291,0.2937,0.1833,0.4387,0.05,-0.15,-0.10,43.243057,-0.040752,-5.86,1,435.10
331931,0.00,-2.6,-40.4,304.1,0.8291,0.2937,0.1833,0.4387,0.05,-0.15,-0.10,43.243057,-0.040752,-5.86,1,435.10
331931,0.00,-2.6,-40.4,304.1,0.8291,0.2937,0.1833,0.4387,0.05,-0.15,-0.10,43.243057,-0.040752,-5.86,1,435.10
331931,0.00,-2.6,-40.4,304.1,0.8291,0.2937,0.1833,0.4387,0.05,-0.15,-0.10,43.243057,-0.040752,-5.86,1,435.10
331931,0.00,-2.6,-40.4,304.1,0.8291,0.2937,0.1833,0.4387,0.05,-0.15,-0.10,43.243057,-0.040752,-5.86,1,435.10
331982,0.00,-2.5,-40.3,304.1,0.8289,0.2935,0.1828,0.4395,0.13,-0.13,-0.19,43.243057,-0.040752,-5.98,1,435.10
331982,0.00,-2.5,-40.3,304.1,0.8289,0.2935,0.1828,0.4395,0.13,-0.13,-0.19,43.243057,-0.040752,-5.98,1,435.10
331982,0.00,-2.5,-40.3,304.1,0.8289,0.2935,0.1828,0.4395,0.13,-0.13,-0.19,43.243057,-0.040752,-5.98,1,435.10
331982,0.00,-2.5,-40.3,304.1,0.8289,0.2935,0.1828,0.4395,0.13,-0.13,-0.19,43.243057,-0.040752,-5.98,1,435.10
331982,0.00,-2.5,-40.3,304.1,0.8289,0.2935,0.1828,0.4395,0.13,-0.13,-0.19,43.243057,-0.040752,-5.98,1,435.10
332007,0.00,-2.5,-40.3,304.0,0.8291,0.2932,0.1821,0.4398,0.19,-0.27,-0.11,43.243057,-0.040752,-5.98,1,435.10
332007,0.00,-2.5,-40.3,304.0,0.8291,0.2932,0.1821,0.4398,0.19,-0.27,-0.11,43.243057,-0.040752,-5.98,1,435.10
332007,0.00,-2.5,-40.3,304.0,0.8291,0.2932,0.1821,0.4398,0.19,-0.27,-0.11,43.243057,-0.040752,-5.98,1,435.10
332007,0.00,-2.5,-40.3,304.0,0.8291,0.2932,0.1821,0.4398,0.19,-0.27,-0.11,43.243057,-0.040752,-5.98,1,435.10
332020,0.00,-2.5,-40.2,304.1,0.8292,0.2926,0.1823,0.4397,0.07,-0.15,-0.00,43.243057,-0.040752,-5.98,1,435.10
332020,0.00,-2.5,-40.2,304.1,0.8292,0.2926,0.1823,0.4397,0.07,-0.15,-0.00,43.243057,-0.040752,-5.98,1,435.10
332020,0.00,-2.5,-40.2,304.1,0.8292,0.2926,0.1823,0.4397,0.07,-0.15,-0.00,43.243057,-0.040752,-5.98,1,435.10
332020,0.00,-2.5,-40.2,304.1,0.8292,0.2926,0.1823,0.4397,0.07,-0.15,-0.00,43.243057,-0.040752,-5.98,1,435.10
332020,0.00,-2.5,-40.2,304.1,0.8292,0.2926,0.1823,0.4397,0.07,-0.15,-0.00,43.243057,-0.040752,-5.98,1,435.10
332033,0.00,-2.5,-40.2,304.1,0.8294,0.2924,0.1824,0.4396,-0.11,-0.11,-0.15,43.243057,-0.040752,-6.07,1,435.10
332033,0.00,-2.5,-40.2,304.1,0.8294,0.2924,0.1824,0.4396,-0.11,-0.11,-0.15,43.243057,-0.040752,-6.07,1,435.10
332033,0.00,-2.5,-40.2,304.1,0.8294,0.2924,0.1824,0.4396,-0.11,-0.11,-0.15,43.243057,-0.040752,-6.07,1,435.10
332033,0.00,-2.5,-40.2,304.1,0.8294,0.2924,0.1824,0.4396,-0.11,-0.11,-0.15,43.243057,-0.040752,-6.07,1,435.10
332045,0.00,-2.6,-40.1,304.1,0.8294,0.2921,0.1824,0.4396,0.07,0.03,-0.46,43.243057,-0.040752,-6.07,1,435.10
332045,0.00,-2.6,-40.1,304.1,0.8294,0.2921,0.1824,0.4396,0.07,0.03,-0.46,43.243057,-0.040752,-6.07,1,435.10
332045,0.00,-2.6,-40.1,304.1,0.8294,0.2921,0.1824,0.4396,0.07,0.03,-0.46,43.243057,-0.040752,-6.07,1,435.10
332045,0.00,-2.6,-40.1,304.1,0.8294,0.2921,0.1824,0.4396,0.07,0.03,-0.46,43.243057,-0.040752,-6.07,1,435.10
332045,0.00,-2.6,-40.1,304.1,0.8294,0.2921,0.1824,0.4396,0.07,0.03,-0.46,43.243057,-0.040752,-6.07,1,435.10
332058,0.00,-2.5,-40.1,304.1,0.8297,0.2917,0.1820,0.4397,0.07,-0.38,-0.05,43.243057,-0.040752,-6.07,1,435.10
332058,0.00,-2.5,-40.1,304.1,0.8297,0.2917,0.1820,0.4397,0.07,-0.38,-0.05,43.243057,-0.040752,-6.07,1,435.10
332058,0.00,-2.5,-40.1,304.1,0.8297,0.2917,0.1820,0.4397,0.07,-0.38,-0.05,43.243057,-0.040752,-6.07,1,435.10
332058,0.00,-2.5,-40.1,304.1,0.8297,0.2917,0.1820,0.4397,0.07,-0.38,-0.05,43.243057,-0.040752,-6.07,1,435.10
332058,0.00,-2.5,-40.1,304.1,0.8297,0.2917,0.1820,0.4397,0.07,-0.38,-0.05,43.243057,-0.040752,-6.07,1,435.10
332071,0.00,-2.6,-39.9,304.3,0.8309,0.2904,0.1810,0.4386,-0.03,-0.05,-0.05,43.243057,-0.040752,-6.07,1,435.10
332071,0.00,-2.6,-39.9,304.3,0.8309,0.2904,0.1810,0.4386,-0.03,-0.05,-0.05,43.243057,-0.040752,-6.07,1,435.10
332071,0.00,-2.6,-39.9,304.3,0.8309,0.2904,0.1810,0.4386,-0.03,-0.05,-0.05,43.243057,-0.040752,-6.07,1,435.10
332071,0.00,-2.6,-39.9,304.3,0.8309,0.2904,0.1810,0.4386,-0.03,-0.05,-0.05,43.243057,-0.040752,-6.07,1,435.10
332071,0.00,-2.6,-39.9,304.3,0.8309,0.2904,0.1810,0.4386,-0.03,-0.05,-0.05,43.243057,-0.040752,-6.07,1,435.10
332084,0.00,-2.6,-39.9,304.4,0.8313,0.2902,0.1813,0.4379,-0.20,0.11,-0.12,43.243057,-0.040752,-6.13,1,435.10
332084,0.00,-2.6,-39.9,304.4,0.8313,0.2902,0.1813,0.4379,-0.20,0.11,-0.12,43.243057,-0.040752,-6.13,1,435.10
332084,0.00,-2.6,-39.9,304.4,0.8313,0.2902,0.1813,0.4379,-0.20,0.11,-0.12,43.243057,-0.040752,-6.13,1,435.10
332084,0.00,-2.6,-39.9,304.4,0.8313,0.2902,0.1813,0.4379,-0.20,0.11,-0.12,43.243057,-0.040752,-6.13,1,435.10
332084,0.00,-2.6,-39.9,304.4,0.8313,0.2902,0.1813,0.4379,-0.20,0.11,-0.12,43.243057,-0.040752,-6.13,1,435.10
332096,0.00,-2.7,-39.9,304.5,0.8315,0.2900,0.1816,0.4375,-0.15,0.11,-0.20,43.243057,-0.040752,-6.13,1,435.10
332096,0.00,-2.7,-39.9,304.5,0.8315,0.2900,0.1816,0.4375,-0.15,0.11,-0.20,43.243057,-0.040752,-6.13,1,435.10
332096,0.00,-2.7,-39.9,304.5,0.8315,0.2900,0.1816,0.4375,-0.15,0.11,-0.20,43.243057,-0.040752,-6.13,1,435.10
332096,0.00,-2.7,-39.9,304.5,0.8315,0.2900,0.1816,0.4375,-0.15,0.11,-0.20,43.243057,-0.040752,-6.13,1,435.10
332096,0.00,-2.7,-39.9,304.5,0.8315,0.2900,0.1816,0.4375,-0.15,0.11,-0.20,43.243057,-0.040752,-6.13,1,435.10
332109,0.00,-2.7,-39.9,304.5,0.8315,0.2899,0.1818,0.4374,-0.22,0.13,-0.09,43.243057,-0.040752,-6.13,1,435.10
332109,0.00,-2.7,-39.9,304.5,0.8315,0.2899,0.1818,0.4374,-0.22,0.13,-0.09,43.243057,-0.040752,-6.13,1,435.10
332109,0.00,-2.7,-39.9,304.5,0.8315,0.2899,0.1818,0.4374,-0.22,0.13,-0.09,43.243057,-0.040752,-6.13,1,435.10
332109,0.00,-2.7,-39.9,304.5,0.8315,0.2899,0.1818,0.4374,-0.22,0.13,-0.09,43.243057,-0.040752,-6.13,1,435.10
332109,0.00,-2.7,-39.9,304.5,0.8315,0.2899,0.1818,0.4374,-0.22,0.13,-0.09,43.243057,-0.040752,-6.13,1,435.10
332122,0.00,-2.7,-39.9,304.3,0.8312,0.2897,0.1820,0.4381,0.01,-0.20,0.01,43.243057,-0.040752,-6.13,1,435.10
332122,0.00,-2.7,-39.9,304.3,0.8312,0.2897,0.1820,0.4381,0.01,-0.20,0.01,43.243057,-0.040752,-6.13,1,435.10
332122,0.00,-2.7,-39.9,304.3,0.8312,0.2897,0.1820,0.4381,0.01,-0.20,0.01,43.243057,-0.040752,-6.13,1,435.10
332122,0.00,-2.7,-39.9,304.3,0.8312,0.2897,0.1820,0.4381,0.01,-0.20,0.01,43.243057,-0.040752,-6.13,1,435.10
332122,0.00,-2.7,-39.9,304.3,0.8312,0.2897,0.1820,0.4381,0.01,-0.20,0.01,43.243057,-0.040752,-6.13,1,435.10
332135,0.00,-2.7,-39.8,304.3,0.8311,0.2897,0.1820,0.4383,0.03,-0.23,0.09,43.243057,-0.040752,-6.17,1,435.10
332135,0.00,-2.7,-39.8,304.3,0.8311,0.2897,0.1820,0.4383,0.03,-0.23,0.09,43.243057,-0.040752,-6.17,1,435.10
332135,0.00,-2.7,-39.8,304.3,0.8311,0.2897,0.1820,0.4383,0.03,-0.23,0.09,43.243057,-0.040752,-6.17,1,435.10
332135,0.00,-2.7,-39.8,304.3,0.8311,0.2897,0.1820,0.4383,0.03,-0.23,0.09,43.243057,-0.040752,-6.17,1,435.10
332135,0.00,-2.7,-39.8,304.3,0.8311,0.2897,0.1820,0.4383,0.03,-0.23,0.09,43.243057,-0.040752,-6.17,1,435.10
332147,0.00,-2.7,-39.8,304.3,0.8311,0.2896,0.1820,0.4384,-0.05,-0.13,-0.03,43.243057,-0.040752,-6.17,1,435.10
332147,0.00,-2.7,-39.8,304.3,0.8311,0.2896,0.1820,0.4384,-0.05,-0.13,-0.03,43.243057,-0.040752,-6.17,1,435.10
332147,0.00,-2.7,-39.8,304.3,0.8311,0.2896,0.1820,0.4384,-0.05,-0.13,-0.03,43.243057,-0.040752,-6.17,1,435.10
332147,0.00,-2.7,-39.8,304.3,0.8311,0.2896,0.1820,0.4384,-0.05,-0.13,-0.03,43.243057,-0.040752,-6.17,1,435.10
332147,0.00,-2.7,-39.8,304.3,0.8311,0.2896,0.1820,0.4384,-0.05,-0.13,-0.03,43.243057,-0.040752,-6.17,1,435.10
332160,0.00,-2.8,-39.8,304.3,0.8312,0.2896,0.1821,0.4381,-0.09,-0.13,-0.09,43.243057,-0.040752,-6.17,1,435.10
332160,0.00,-2.8,-39.8,304.3,0.8312,0.2896,0.1821,0.4381,-0.09,-0.13,-0.09,43.243057,-0.040752,-6.17,1,435.10
332160,0.00,-2.8,-39.8,304.3,0.8312,0.2896,0.1821,0.4381,-0.09,-0.13,-0.09,43.243057,-0.040752,-6.17,1,435.10
332160,0.00,-2.8,-39.8,304.3,0.8312,0.2896,0.1821,0.4381,-0.09,-0.13,-0.09,43.243057,-0.040752,-6.17,1,435.10
332160,0.00,-2.8,-39.8,304.3,0.8312,0.2896,0.1821,0.4381,-0.09,-0.13,-0.09,43.243057,-0.040752,-6.17,1,435.10
332173,0.00,-2.8,-39.8,304.5,0.8317,0.2892,0.1823,0.4374,-0.09,0.00,-0.05,43.243057,-0.040752,-6.17,1,435.10
332173,0.00,-2.8,-39.8,304.5,0.8317,0.2892,0.1823,0.4374,-0.09,0.00,-0.05,43.243057,-0.040752,-6.17,1,435.10
332173,0.00,-2.8,-39.8,304.5,0.8317,0.2892,0.1823,0.4374,-0.09,0.00,-0.05,43.243057,-0.040752,-6.17,1,435.10
332173,0.00,-2.8,-39.8,304.5,0.8317,0.2892,0.1823,0.4374,-0.09,0.00,-0.05,43.243057,-0.040752,-6.17,1,435.10
332173,0.00,-2.8,-39.8,304.5,0.8317,0.2892,0.1823,0.4374,-0.09,0.00,-0.05,43.243057,-0.040752,-6.17,1,435.10
332186,0.00,-2.8,-39.8,304.5,0.8318,0.2891,0.1826,0.4371,-0.25,0.00,-0.05,43.243057,-0.040752,-6.21,1,435.10
332186,0.00,-2.8,-39.8,304.5,0.8318,0.2891,0.1826,0.4371,-0.25,0.00,-0.05,43.243057,-0.040752,-6.21,1,435.10
332186,0.00,-2.8,-39.8,304.5,0.8318,0.2891,0.1826,0.4371,-0.25,0.00,-0.05,43.243057,-0.040752,-6.21,1,435.10
332186,0.00,-2.8,-39.8,304.5,0.8318,0.2891,0.1826,0.4371,-0.25,0.00,-0.05,43.243057,-0.040752,-6.21,1,435.10
332186,0.00,-2.8,-39.8,304.5,0.8318,0.2891,0.1826,0.4371,-0.25,0.00,-0.05,43.243057,-0.040752,-6.21,1,435.10
332198,0.00,-2.9,-39.8,304.5,0.8317,0.2891,0.1828,0.4371,-0.23,0.03,-0.07,43.243057,-0.040752,-6.21,1,435.10
332198,0.00,-2.9,-39.8,304.5,0.8317,0.2891,0.1828,0.4371,-0.23,0.03,-0.07,43.243057,-0.040752,-6.21,1,435.10
332198,0.00,-2.9,-39.8,304.5,0.8317,0.2891,0.1828,0.4371,-0.23,0.03,-0.07,43.243057,-0.040752,-6.21,1,435.10
332198,0.00,-2.9,-39.8,304.5,0.8317,0.2891,0.1828,0.4371,-0.23,0.03,-0.07,43.243057,-0.040752,-6.21,1,435.10
332198,0.00,-2.9,-39.8,304.5,0.8317,0.2891,0.1828,0.4371,-0.23,0.03,-0.07,43.243057,-0.040752,-6.21,1,435.10
332211,0.00,-2.9,-39.9,304.5,0.8316,0.2893,0.1831,0.4372,-0.17,0.02,-0.11,43.243057,-0.040752,-6.21,1,435.10
332211,0.00,-2.9,-39.9,304.5,0.8316,0.2893,0.1831,0.4372,-0.17,0.02,-0.11,43.243057,-0.040752,-6.21,1,435.10
332211,0.00,-2.9,-39.9,304.5,0.8316,0.2893,0.1831,0.4372,-0.17,0.02,-0.11,43.243057,-0.040752,-6.21,1,435.10
332211,0.00,-2.9,-39.9,304.5,0.8316,0.2893,0.1831,0.4372,-0.17,0.02,-0.11,43.243057,-0.040752,-6.21,1,435.10
332211,0.00,-2.9,-39.9,304.5,0.8316,0.2893,0.1831,0.4372,-0.17,0.02,-0.11,43.243057,-0.040752,-6.21,1,435.10
332224,0.00,-2.8,-40.0,304.3,0.8311,0.2896,0.1833,0.4379,0.00,-0.15,-0.05,43.243057,-0.040752,-6.21,1,435.10
332224,0.00,-2.8,-40.0,304.3,0.8311,0.2896,0.1833,0.4379,0.00,-0.15,-0.05,43.243057,-0.040752,-6.21,1,435.10
332224,0.00,-2.8,-40.0,304.3,0.8311,0.2896,0.1833,0.4379,0.00,-0.15,-0.05,43.243057,-0.040752,-6.21,1,435.10
332224,0.00,-2.8,-40.0,304.3,0.8311,0.2896,0.1833,0.4379,0.00,-0.15,-0.05,43.243057,-0.040752,-6.21,1,435.10
332224,0.00,-2.8,-40.0,304.3,0.8311,0.2896,0.1833,0.4379,0.00,-0.15,-0.05,43.243057,-0.040752,-6.21,1,435.10
332237,0.00,-2.8,-40.0,304.3,0.8308,0.2897,0.1832,0.4382,0.01,-0.18,-0.05,43.243057,-0.040752,-6.26,1,435.10
332237,0.00,-2.8,-40.0,304.3,0.8308,0.2897,0.1832,0.4382,0.01,-0.18,-0.05,43.243057,-0.040752,-6.26,1,435.10
332237,0.00,-2.8,-40.0,304.3,0.8308,0.2897,0.1832,0.4382,0.01,-0.18,-0.05,43.243057,-0.040752,-6.26,1,435.10
332237,0.00,-2.8,-40.0,304.3,0.8308,0.2897,0.1832,0.4382,0.01,-0.18,-0.05,43.243057,-0.040752,-6.26,1,435.10
332237,0.00,-2.8,-40.0,304.3,0.8308,0.2897,0.1832,0.4382,0.01,-0.18,-0.05,43.243057,-0.040752,-6.26,1,435.10
332249,0.00,-2.8,-40.0,304.3,0.8308,0.2898,0.1830,0.4384,0.05,-0.17,-0.11,43.243057,-0.040752,-6.26,1,435.10
332249,0.00,-2.8,-40.0,304.3,0.8308,0.2898,0.1830,0.4384,0.05,-0.17,-0.11,43.243057,-0.040752,-6.26,1,435.10
332249,0.00,-2.8,-40.0,304.3,0.8308,0.2898,0.1830,0.4384,0.05,-0.17,-0.11,43.243057,-0.040752,-6.26,1,435.10
332249,0.00,-2.8,-40.0,304.3,0.8308,0.2898,0.1830,0.4384,0.05,-0.17,-0.11,43.243057,-0.040752,-6.26,1,435.10
332249,0.00,-2.8,-40.0,304.3,0.8308,0.2898,0.1830,0.4384,0.05,-0.17,-0.11,43.243057,-0.040752,-6.26,1,435.10
332262,0.00,-2.8,-40.0,304.3,0.8308,0.2899,0.1828,0.4385,0.15,-0.15,-0.27,43.243057,-0.040752,-6.26,1,435.10
332262,0.00,-2.8,-40.0,304.3,0.8308,0.2899,0.1828,0.4385,0.15,-0.15,-0.27,43.243057,-0.040752,-6.26,1,435.10
332262,0.00,-2.8,-40.0,304.3,0.8308,0.2899,0.1828,0.4385,0.15,-0.15,-0.27,43.243057,-0.040752,-6.26,1,435.10
332262,0.00,-2.8,-40.0,304.3,0.8308,0.2899,0.1828,0.4385,0.15,-0.15,-0.27,43.243057,-0.040752,-6.26,1,435.10
332262,0.00,-2.8,-40.0,304.3,0.8308,0.2899,0.1828,0.4385,0.15,-0.15,-0.27,43.243057,-0.040752,-6.26,1,435.10
332275,0.00,-2.7,-39.9,304.3,0.8308,0.2899,0.1825,0.4384,0.18,-0.15,-0.36,43.243057,-0.040752,-6.26,1,435.10
332275,0.00,-2.7,-39.9,304.3,0.8308,0.2899,0.1825,0.4384,0.18,-0.15,-0.36,43.243057,-0.040752,-6.26,1,435.10
332275,0.00,-2.7,-39.9,304.3,0.8308,0.2899,0.1825,0.4384,0.18,-0.15,-0.36,43.243057,-0.040752,-6.26,1,435.10
332275,0.00,-2.7,-39.9,304.3,0.8308,0.2899,0.1825,0.4384,0.18,-0.15,-0.36,43.243057,-0.040752,-6.26,1,435.10
332275,0.00,-2.7,-39.9,304.3,0.8308,0.2899,0.1825,0.4384,0.18,-0.15,-0.36,43.243057,-0.040752,-6.26,1,435.10
332288,0.00,-2.7,-39.9,304.3,0.8309,0.2899,0.1821,0.4384,0.22,-0.13,-0.40,43.243057,-0.040752,-6.32,1,435.10
332288,0.00,-2.7,-39.9,304.3,0.8309,0.2899,0.1821,0.4384,0.22,-0.13,-0.40,43.243057,-0.040752,-6.32,1,435.10
332288,0.00,-2.7,-39.9,304.3,0.8309,0.2899,0.1821,0.4384,0.22,-0.13,-0.40,43.243057,-0.040752,-6.32,1,435.10
332288,0.00,-2.7,-39.9,304.3,0.8309,0.2899,0.1821,0.4384,0.22,-0.13,-0.40,43.243057,-0.040752,-6.32,1,435.10
332288,0.00,-2.7,-39.9,304.3,0.8309,0.2899,0.1821,0.4384,0.22,-0.13,-0.40,43.243057,-0.040752,-6.32,1,435.10
332300,0.00,-2.6,-39.8,304.3,0.8311,0.2897,0.1815,0.4384,0.41,-0.31,-0.37,43.243057,-0.040752,-6.32,1,435.10
332300,0.00,-2.6,-39.8,304.3,0.8311,0.2897,0.1815,0.4384,0.41,-0.31,-0.37,43.243057,-0.040752,-6.32,1,435.10
332300,0.00,-2.6,-39.8,304.3,0.8311,0.2897,0.1815,0.4384,0.41,-0.31,-0.37,43.243057,-0.040752,-6.32,1,435.10
332300,0.00,-2.6,-39.8,304.3,0.8311,0.2897,0.1815,0.4384,0.41,-0.31,-0.37,43.243057,-0.040752,-6.32,1,435.10
332300,0.00,-2.6,-39.8,304.3,0.8311,0.2897,0.1815,0.4384,0.41,-0.31,-0.37,43.243057,-0.040752,-6.32,1,435.10
332313,0.00,-2.6,-39.8,304.3,0.8312,0.2895,0.1813,0.4385,0.38,-0.31,-0.22,43.243057,-0.040752,-6.32,1,435.10
332313,0.00,-2.6,-39.8,304.3,0.8312,0.2895,0.1813,0.4385,0.38,-0.31,-0.22,43.243057,-0.040752,-6.32,1,435.10
332313,0.00,-2.6,-39.8,304.3,0.8312,0.2895,0.1813,0.4385,0.38,-0.31,-0.22,43.243057,-0.040752,-6.32,1,435.10
332313,0.00,-2.6,-39.8,304.3,0.8312,0.2895,0.1813,0.4385,0.38,-0.31,-0.22,43.243057,-0.040752,-6.32,1,435.10
332313,0.00,-2.6,-39.8,304.3,0.8312,0.2895,0.1813,0.4385,0.38,-0.31,-0.22,43.243057,-0.040752,-6.32,1,435.10
332326,0.00,-2.6,-39.8,304.3,0.8311,0.2894,0.1814,0.4386,0.27,-0.31,-0.18,43.243057,-0.040752,-6.32,1,435.10
332326,0.00,-2.6,-39.8,304.3,0.8311,0.2894,0.1814,0.4386,0.27,-0.31,-0.18,43.243057,-0.040752,-6.32,1,435.10
332326,0.00,-2.6,-39.8,304.3,0.8311,0.2894,0.1814,0.4386,0.27,-0.31,-0.18,43.243057,-0.040752,-6.32,1,435.10
332326,0.00,-2.6,-39.8,304.3,0.8311,0.2894,0.1814,0.4386,0.27,-0.31,-0.18,43.243057,-0.040752,-6.32,1,435.10
332326,0.00,-2.6,-39.8,304.3,0.8311,0.2894,0.1814,0.4386,0.27,-0.31,-0.18,43.243057,-0.040752,-6.32,1,435.10
332339,0.00,-2.7,-39.8,304.2,0.8309,0.2890,0.1821,0.4390,0.01,-0.22,0.00,43.243057,-0.040752,-6.39,1,435.10
332339,0.00,-2.7,-39.8,304.2,0.8309,0.2890,0.1821,0.4390,0.01,-0.22,0.00,43.243057,-0.040752,-6.39,1,435.10
332339,0.00,-2.7,-39.8,304.2,0.8309,0.2890,0.1821,0.4390,0.01,-0.22,0.00,43.243057,-0.040752,-6.39,1,435.10
332339,0.00,-2.7,-39.8,304.2,0.8309,0.2890,0.1821,0.4390,0.01,-0.22,0.00,43.243057,-0.040752,-6.39,1,435.10
332339,0.00,-2.7,-39.8,304.2,0.8309,0.2890,0.1821,0.4390,0.01,-0.22,0.00,43.243057,-0.040752,-6.39,1,435.10
332351,0.00,-2.8,-39.8,304.2,0.8309,0.2888,0.1825,0.4390,-0.09,-0.11,-0.00,43.243057,-0.040752,-6.39,1,435.10
332351,0.00,-2.8,-39.8,304.2,0.8309,0.2888,0.1825,0.4390,-0.09,-0.11,-0.00,43.243057,-0.040752,-6.39,1,435.10
332351,0.00,-2.8,-39.8,304.2,0.8309,0.2888,0.1825,0.4390,-0.09,-0.11,-0.00,43.243057,-0.040752,-6.39,1,435.10
332351,0.00,-2.8,-39.8,304.2,0.8309,0.2888,0.1825,0.4390,-0.09,-0.11,-0.00,43.243057,-0.040752,-6.39,1,435.10
332351,0.00,-2.8,-39.8,304.2,0.8309,0.2888,0.1825,0.4390,-0.09,-0.11,-0.00,43.243057,-0.040752,-6.39,1,435.10
332364,0.00,-2.8,-39.8,304.3,0.8309,0.2887,0.1829,0.4389,-0.17,-0.01,-0.05,43.243057,-0.040752,-6.39,1,435.10
332364,0.00,-2.8,-39.8,304.3,0.8309,0.2887,0.1829,0.4389,-0.17,-0.01,-0.05,43.243057,-0.040752,-6.39,1,435.10
332364,0.00,-2.8,-39.8,304.3,0.8309,0.2887,0.1829,0.4389,-0.17,-0.01,-0.05,43.243057,-0.040752,-6.39,1,435.10
332364,0.00,-2.8,-39.8,304.3,0.8309,0.2887,0.1829,0.4389,-0.17,-0.01,-0.05,43.243057,-0.040752,-6.39,1,435.10
332364,0.00,-2.8,-39.8,304.3,0.8309,0.2887,0.1829,0.4389,-0.17,-0.01,-0.05,43.243057,-0.040752,-6.39,1,435.10
332377,0.00,-2.8,-39.8,304.3,0.8310,0.2886,0.1831,0.4387,0.18,-0.12,-0.25,43.243057,-0.040752,-6.39,1,435.10
332377,0.00,-2.8,-39.8,304.3,0.8310,0.2886,0.1831,0.4387,0.18,-0.12,-0.25,43.243057,-0.040752,-6.39,1,435.10
332377,0.00,-2.8,-39.8,304.3,0.8310,0.2886,0.1831,0.4387,0.18,-0.12,-0.25,43.243057,-0.040752,-6.39,1,435.10
332377,0.00,-2.8,-39.8,304.3,0.8310,0.2886,0.1831,0.4387,0.18,-0.12,-0.25,43.243057,-0.040752,-6.39,1,435.10
332377,0.00,-2.8,-39.8,304.3,0.8310,0.2886,0.1831,0.4387,0.18,-0.12,-0.25,43.243057,-0.040752,-6.39,1,435.10
332390,0.00,-2.8,-39.8,304.3,0.8312,0.2884,0.1826,0.4387,0.36,-0.22,-0.44,43.243057,-0.040752,-6.43,1,435.10
332390,0.00,-2.8,-39.8,304.3,0.8312,0.2884,0.1826,0.4387,0.36,-0.22,-0.44,43.243057,-0.040752,-6.43,1,435.10
332390,0.00,-2.8,-39.8,304.3,0.8312,0.2884,0.1826,0.4387,0.36,-0.22,-0.44,43.243057,-0.040752,-6.43,1,435.10
332390,0.00,-2.8,-39.8,304.3,0.8312,0.2884,0.1826,0.4387,0.36,-0.22,-0.44,43.243057,-0.040752,-6.43,1,435.10
332390,0.00,-2.8,-39.8,304.3,0.8312,0.2884,0.1826,0.4387,0.36,-0.22,-0.44,43.243057,-0.040752,-6.43,1,435.10
332402,0.00,-2.8,-39.7,304.3,0.8313,0.2882,0.1823,0.4387,0.36,-0.22,-0.44,43.243057,-0.040752,-6.43,1,435.10
332402,0.00,-2.8,-39.7,304.3,0.8313,0.2882,0.1823,0.4387,0.36,-0.22,-0.44,43.243057,-0.040752,-6.43,1,435.10
332402,0.00,-2.8,-39.7,304.3,0.8313,0.2882,0.1823,0.4387,0.36,-0.22,-0.44,43.243057,-0.040752,-6.43,1,435.10
332402,0.00,-2.8,-39.7,304.3,0.8313,0.2882,0.1823,0.4387,0.36,-0.22,-0.44,43.243057,-0.040752,-6.43,1,435.10
332402,0.00,-2.8,-39.7,304.3,0.8313,0.2882,0.1823,0.4387,0.36,-0.22,-0.44,43.243057,-0.040752,-6.43,1,435.10
332415,0.00,-2.8,-39.7,304.3,0.8314,0.2879,0.1822,0.4388,0.49,-0.27,-0.40,43.243057,-0.040752,-6.43,1,435.10
332415,0.00,-2.8,-39.7,304.3,0.8314,0.2879,0.1822,0.4388,0.49,-0.27,-0.40,43.243057,-0.040752,-6.43,1,435.10
332415,0.00,-2.8,-39.7,304.3,0.8314,0.2879,0.1822,0.4388,0.49,-0.27,-0.40,43.243057,-0.040752,-6.43,1,435.10
332415,0.00,-2.8,-39.7,304.3,0.8314,0.2879,0.1822,0.4388,0.49,-0.27,-0.40,43.243057,-0.040752,-6.43,1,435.10
332415,0.00,-2.8,-39.7,304.3,0.8314,0.2879,0.1822,0.4388,0.49,-0.27,-0.40,43.243057,-0.040752,-6.43,1,435.10
332428,0.00,-2.8,-39.6,304.3,0.8313,0.2876,0.1824,0.4390,0.15,0.00,-0.22,43.243057,-0.040752,-6.43,1,435.10
332428,0.00,-2.8,-39.6,304.3,0.8313,0.2876,0.1824,0.4390,0.15,0.00,-0.22,43.243057,-0.040752,-6.43,1,435.10
332428,0.00,-2.8,-39.6,304.3,0.8313,0.2876,0.1824,0.4390,0.15,0.00,-0.22,43.243057,-0.040752,-6.43,1,435.10
332428,0.00,-2.8,-39.6,304.3,0.8313,0.2876,0.1824,0.4390,0.15,0.00,-0.22,43.243057,-0.040752,-6.43,1,435.10
332428,0.00,-2.8,-39.6,304.3,0.8313,0.2876,0.1824,0.4390,0.15,0.00,-0.22,43.243057,-0.040752,-6.43,1,435.10
332441,0.00,-3.0,-39.6,304.2,0.8314,0.2864,0.1829,0.4395,0.03,-0.22,0.19,43.243057,-0.040752,-6.47,1,435.10
332441,0.00,-3.0,-39.6,304.2,0.8314,0.2864,0.1829,0.4395,0.03,-0.22,0.19,43.243057,-0.040752,-6.47,1,435.10
332441,0.00,-3.0,-39.6,304.2,0.8314,0.2864,0.1829,0.4395,0.03,-0.22,0.19,43.243057,-0.040752,-6.47,1,435.10
332441,0.00,-3.0,-39.6,304.2,0.8314,0.2864,0.1829,0.4395,0.03,-0.22,0.19,43.243057,-0.040752,-6.47,1,435.10
332441,0.00,-3.0,-39.6,304.2,0.8314,0.2864,0.1829,0.4395,0.03,-0.22,0.19,43.243057,-0.040752,-6.47,1,435.10
332453,0.00,-3.0,-39.5,304.3,0.8318,0.2855,0.1830,0.4392,0.03,-0.22,0.19,43.243057,-0.040752,-6.47,1,435.20
332453,0.00,-3.0,-39.5,304.3,0.8318,0.2855,0.1830,0.4392,0.03,-0.22,0.19,43.243057,-0.040752,-6.47,1,435.20
332453,0.00,-3.0,-39.5,304.3,0.8318,0.2855,0.1830,0.4392,0.03,-0.22,0.19,43.243057,-0.040752,-6.47,1,435.20
332453,0.00,-3.0,-39.5,304.3,0.8318,0.2855,0.1830,0.4392,0.03,-0.22,0.19,43.243057,-0.040752,-6.47,1,435.20
332453,0.00,-3.0,-39.5,304.3,0.8318,0.2855,0.1830,0.4392,0.03,-0.22,0.19,43.243057,-0.040752,-6.47,1,435.20
332466,0.00,-3.1,-39.4,304.3,0.8323,0.2848,0.1829,0.4388,-0.03,0.07,0.05,43.243057,-0.040752,-6.47,1,435.20
332466,0.00,-3.1,-39.4,304.3,0.8323,0.2848,0.1829,0.4388,-0.03,0.07,0.05,43.243057,-0.040752,-6.47,1,435.20
332466,0.00,-3.1,-39.4,304.3,0.8323,0.2848,0.1829,0.4388,-0.03,0.07,0.05,43.243057,-0.040752,-6.47,1,435.20
332466,0.00,-3.1,-39.4,304.3,0.8323,0.2848,0.1829,0.4388,-0.03,0.07,0.05,43.243057,-0.040752,-6.47,1,435.20
332466,0.00,-3.1,-39.4,304.3,0.8323,0.2848,0.1829,0.4388,-0.03,0.07,0.05,43.243057,-0.040752,-6.47,1,435.20
332480,0.00,-3.1,-39.3,304.4,0.8331,0.2833,0.1823,0.4384,0.00,-0.36,-0.12,43.243057,-0.040752,-6.47,1,435.20
332480,0.00,-3.1,-39.3,304.4,0.8331,0.2833,0.1823,0.4384,0.00,-0.36,-0.12,43.243057,-0.040752,-6.47,1,435.20
332480,0.00,-3.1,-39.3,304.4,0.8331,0.2833,0.1823,0.4384,0.00,-0.36,-0.12,43.243057,-0.040752,-6.47,1,435.20
332480,0.00,-3.1,-39.3,304.4,0.8331,0.2833,0.1823,0.4384,0.00,-0.36,-0.12,43.243057,-0.040752,-6.47,1,435.20
332480,0.00,-3.1,-39.3,304.4,0.8331,0.2833,0.1823,0.4384,0.00,-0.36,-0.12,43.243057,-0.040752,-6.47,1,435.20
332492,38.11,-3.1,-39.2,304.4,0.8332,0.2828,0.1821,0.4387,0.35,-0.20,-0.27,43.243057,-0.040752,-6.51,1,435.20
332492,38.08,-3.1,-39.2,304.4,0.8332,0.2828,0.1821,0.4387,0.35,-0.20,-0.27,43.243057,-0.040752,-6.51,1,435.20
332492,38.09,-3.1,-39.2,304.4,0.8332,0.2828,0.1821,0.4387,0.35,-0.20,-0.27,43.243057,-0.040752,-6.51,1,435.20
332492,38.09,-3.1,-39.2,304.4,0.8332,0.2828,0.1821,0.4387,0.35,-0.20,-0.27,43.243057,-0.040752,-6.51,1,435.20
332492,38.11,-3.1,-39.2,304.4,0.8332,0.2828,0.1821,0.4387,0.35,-0.20,-0.27,43.243057,-0.040752,-6.51,1,435.20
332505,38.06,-3.1,-39.1,304.4,0.8332,0.2828,0.1821,0.4387,0.35,-0.20,-0.27,43.243057,-0.040752,-6.51,1,435.20
332505,38.04,-3.1,-39.1,304.4,0.8332,0.2828,0.1821,0.4387,0.35,-0.20,-0.27,43.243057,-0.040752,-6.51,1,435.20
332505,38.04,-3.1,-39.1,304.4,0.8332,0.2828,0.1821,0.4387,0.35,-0.20,-0.27,43.243057,-0.040752,-6.51,1,435.20
332505,38.04,-3.1,-39.1,304.4,0.8332,0.2828,0.1821,0.4387,0.35,-0.20,-0.27,43.243057,-0.040752,-6.51,1,435.20
332505,37.99,-3.1,-39.1,304.4,0.8332,0.2828,0.1821,0.4387,0.35,-0.20,-0.27,43.243057,-0.040752,-6.51,1,435.20
332517,37.97,-3.1,-39.1,304.4,0.8333,0.2823,0.1821,0.4389,0.25,-0.20,-0.45,43.243057,-0.040752,-6.51,1,435.20
332517,0.00,-3.1,-39.1,304.4,0.8333,0.2823,0.1821,0.4389,0.25,-0.20,-0.45,43.243057,-0.040752,-6.51,1,435.20
332517,0.00,-3.1,-39.1,304.4,0.8333,0.2823,0.1821,0.4389,0.25,-0.20,-0.45,43.243057,-0.040752,-6.51,1,435.20
332517,0.00,-3.1,-39.1,304.4,0.8333,0.2823,0.1821,0.4389,0.25,-0.20,-0.45,43.243057,-0.040752,-6.51,1,435.20
332517,0.00,-3.1,-39.1,304.4,0.8333,0.2823,0.1821,0.4389,0.25,-0.20,-0.45,43.243057,-0.040752,-6.51,1,435.20
332530,0.00,-3.5,-38.9,304.4,0.8337,0.2791,0.1849,0.4390,-0.38,0.02,0.00,43.243057,-0.040752,-6.51,1,435.20
332530,0.00,-3.5,-38.9,304.4,0.8337,0.2791,0.1849,0.4390,-0.38,0.02,0.00,43.243057,-0.040752,-6.51,1,435.20
332530,0.00,-3.5,-38.9,304.4,0.8337,0.2791,0.1849,0.4390,-0.38,0.02,0.00,43.243057,-0.040752,-6.51,1,435.20
332530,0.00,-3.5,-38.9,304.4,0.8337,0.2791,0.1849,0.4390,-0.38,0.02,0.00,43.243057,-0.040752,-6.51,1,435.20
332530,0.00,-3.5,-38.9,304.4,0.8337,0.2791,0.1849,0.4390,-0.38,0.02,0.00,43.243057,-0.040752,-6.51,1,435.20
332543,0.00,-3.5,-38.9,304.4,0.8336,0.2780,0.1864,0.4392,-0.36,0.05,0.17,43.243057,-0.040752,-6.54,1,435.20
332543,0.00,-3.5,-38.9,304.4,0.8336,0.2780,0.1864,0.4392,-0.36,0.05,0.17,43.243057,-0.040752,-6.54,1,435.20
332543,0.00,-3.5,-38.9,304.4,0.8336,0.2780,0.1864,0.4392,-0.36,0.05,0.17,43.243057,-0.040752,-6.54,1,435.20
332543,0.00,-3.5,-38.9,304.4,0.8336,0.2780,0.1864,0.4392,-0.36,0.05,0.17,43.243057,-0.040752,-6.54,1,435.20
332543,0.00,-3.5,-38.9,304.4,0.8336,0.2780,0.1864,0.4392,-0.36,0.05,0.17,43.243057,-0.040752,-6.54,1,435.20
332555,0.00,-3.9,-38.9,304.3,0.8333,0.2772,0.1876,0.4398,-0.34,0.09,0.07,43.243057,-0.040752,-6.54,1,435.20
332555,0.00,-3.9,-38.9,304.3,0.8333,0.2772,0.1876,0.4398,-0.34,0.09,0.07,43.243057,-0.040752,-6.54,1,435.20
332555,0.00,-3.9,-38.9,304.3,0.8333,0.2772,0.1876,0.4398,-0.34,0.09,0.07,43.243057,-0.040752,-6.54,1,435.20
332555,0.00,-3.9,-38.9,304.3,0.8333,0.2772,0.1876,0.4398,-0.34,0.09,0.07,43.243057,-0.040752,-6.54,1,435.20
332555,0.00,-3.9,-38.9,304.3,0.8333,0.2772,0.1876,0.4398,-0.34,0.09,0.07,43.243057,-0.040752,-6.54,1,435.20
332568,0.00,-4.0,-38.9,304.2,0.8330,0.2764,0.1888,0.4403,-0.33,0.30,-0.74,43.243057,-0.040752,-6.54,1,435.20
332568,0.00,-4.0,-38.9,304.2,0.8330,0.2764,0.1888,0.4403,-0.33,0.30,-0.74,43.243057,-0.040752,-6.54,1,435.20
332568,0.00,-4.0,-38.9,304.2,0.8330,0.2764,0.1888,0.4403,-0.33,0.30,-0.74,43.243057,-0.040752,-6.54,1,435.20
332568,0.00,-4.0,-38.9,304.2,0.8330,0.2764,0.1888,0.4403,-0.33,0.30,-0.74,43.243057,-0.040752,-6.54,1,435.20
332568,0.00,-4.0,-38.9,304.2,0.8330,0.2764,0.1888,0.4403,-0.33,0.30,-0.74,43.243057,-0.040752,-6.54,1,435.20
332581,0.00,-4.2,-38.6,304.0,0.8329,0.2735,0.1900,0.4418,0.34,0.09,-0.02,43.243057,-0.040752,-6.54,1,435.20
332581,36.81,-4.2,-38.6,304.0,0.8329,0.2735,0.1900,0.4418,0.34,0.09,-0.02,43.243057,-0.040752,-6.54,1,435.20
332581,36.70,-4.2,-38.6,304.0,0.8329,0.2735,0.1900,0.4418,0.34,0.09,-0.02,43.243057,-0.040752,-6.54,1,435.20
332581,0.00,-4.2,-38.6,304.0,0.8329,0.2735,0.1900,0.4418,0.34,0.09,-0.02,43.243057,-0.040752,-6.54,1,435.20
332581,0.00,-4.2,-38.6,304.0,0.8329,0.2735,0.1900,0.4418,0.34,0.09,-0.02,43.243057,-0.040752,-6.54,1,435.20
332594,0.00,-4.3,-38.5,304.0,0.8328,0.2718,0.1908,0.4428,-0.00,-0.11,0.12,43.243057,-0.040752,-6.56,1,435.20
332594,0.00,-4.3,-38.5,304.0,0.8328,0.2718,0.1908,0.4428,-0.00,-0.11,0.12,43.243057,-0.040752,-6.56,1,435.20
332594,0.00,-4.3,-38.5,304.0,0.8328,0.2718,0.1908,0.4428,-0.00,-0.11,0.12,43.243057,-0.040752,-6.56,1,435.20
332594,0.00,-4.3,-38.5,304.0,0.8328,0.2718,0.1908,0.4428,-0.00,-0.11,0.12,43.243057,-0.040752,-6.56,1,435.20
332594,34.36,-4.3,-38.5,304.0,0.8328,0.2718,0.1908,0.4428,-0.00,-0.11,0.12,43.243057,-0.040752,-6.56,1,435.20
332607,34.36,-4.5,-38.5,303.8,0.8321,0.2709,0.1920,0.4441,-0.20,0.05,0.60,43.243057,-0.040752,-6.56,1,435.20
332607,34.45,-4.5,-38.5,303.8,0.8321,0.2709,0.1920,0.4441,-0.20,0.05,0.60,43.243057,-0.040752,-6.56,1,435.20
332607,34.34,-4.5,-38.5,303.8,0.8321,0.2709,0.1920,0.4441,-0.20,0.05,0.60,43.243057,-0.040752,-6.56,1,435.20
332607,34.20,-4.5,-38.5,303.8,0.8321,0.2709,0.1920,0.4441,-0.20,0.05,0.60,43.243057,-0.040752,-6.56,1,435.20
332607,34.02,-4.5,-38.5,303.8,0.8321,0.2709,0.1920,0.4441,-0.20,0.05,0.60,43.243057,-0.040752,-6.56,1,435.20
332620,33.93,-4.6,-38.5,303.6,0.8314,0.2699,0.1932,0.4454,-0.20,0.19,0.63,43.243057,-0.040752,-6.56,1,435.20
332620,33.95,-4.6,-38.5,303.6,0.8314,0.2699,0.1932,0.4454,-0.20,0.19,0.63,43.243057,-0.040752,-6.56,1,435.20
332620,34.00,-4.6,-38.5,303.6,0.8314,0.2699,0.1932,0.4454,-0.20,0.19,0.63,43.243057,-0.040752,-6.56,1,435.20
332620,33.95,-4.6,-38.5,303.6,0.8314,0.2699,0.1932,0.4454,-0.20,0.19,0.63,43.243057,-0.040752,-6.56,1,435.20
332620,33.90,-4.6,-38.5,303.6,0.8314,0.2699,0.1932,0.4454,-0.20,0.19,0.63,43.243057,-0.040752,-6.56,1,435.20
332633,33.81,-4.5,-38.5,303.0,0.8293,0.2692,0.1945,0.4492,-0.13,-0.02,0.38,43.243057,-0.040752,-6.56,1,435.20
332633,33.77,-4.5,-38.5,303.0,0.8293,0.2692,0.1945,0.4492,-0.13,-0.02,0.38,43.243057,-0.040752,-6.56,1,435.20
332633,33.72,-4.5,-38.5,303.0,0.8293,0.2692,0.1945,0.4492,-0.13,-0.02,0.38,43.243057,-0.040752,-6.56,1,435.20
332633,33.74,-4.5,-38.5,303.0,0.8293,0.2692,0.1945,0.4492,-0.13,-0.02,0.38,43.243057,-0.040752,-6.56,1,435.20
332633,33.72,-4.5,-38.5,303.0,0.8293,0.2692,0.1945,0.4492,-0.13,-0.02,0.38,43.243057,-0.040752,-6.56,1,435.20
332645,33.72,-4.5,-38.4,302.9,0.8289,0.2686,0.1943,0.4503,0.40,-0.52,0.22,43.243057,-0.040752,-6.59,1,435.20
332645,33.72,-4.5,-38.4,302.9,0.8289,0.2686,0.1943,0.4503,0.40,-0.52,0.22,43.243057,-0.040752,-6.59,1,435.20
332645,33.72,-4.5,-38.4,302.9,0.8289,0.2686,0.1943,0.4503,0.40,-0.52,0.22,43.243057,-0.040752,-6.59,1,435.20
332645,33.75,-4.5,-38.4,302.9,0.8289,0.2686,0.1943,0.4503,0.40,-0.52,0.22,43.243057,-0.040752,-6.59,1,435.20
332645,33.75,-4.5,-38.4,302.9,0.8289,0.2686,0.1943,0.4503,0.40,-0.52,0.22,43.243057,-0.040752,-6.59,1,435.20
332658,33.79,-4.6,-38.3,302.8,0.8289,0.2677,0.1943,0.4509,0.44,-0.55,0.05,43.243057,-0.040752,-6.59,1,435.20
332658,33.77,-4.6,-38.3,302.8,0.8289,0.2677,0.1943,0.4509,0.44,-0.55,0.05,43.243057,-0.040752,-6.59,1,435.20
332658,33.79,-4.6,-38.3,302.8,0.8289,0.2677,0.1943,0.4509,0.44,-0.55,0.05,43.243057,-0.040752,-6.59,1,435.20
332658,33.77,-4.6,-38.3,302.8,0.8289,0.2677,0.1943,0.4509,0.44,-0.55,0.05,43.243057,-0.040752,-6.59,1,435.20
332658,33.77,-4.6,-38.3,302.8,0.8289,0.2677,0.1943,0.4509,0.44,-0.55,0.05,43.243057,-0.040752,-6.59,1,435.20
332671,33.75,-4.6,-38.2,302.8,0.8289,0.2667,0.1943,0.4515,0.38,-0.31,0.37,43.243057,-0.040755,-6.59,1,435.20
332671,33.70,-4.6,-38.2,302.8,0.8289,0.2667,0.1943,0.4515,0.38,-0.31,0.37,43.243057,-0.040755,-6.59,1,435.20
332671,33.68,-4.6,-38.2,302.8,0.8289,0.2667,0.1943,0.4515,0.38,-0.31,0.37,43.243057,-0.040755,-6.59,1,435.20
332671,33.65,-4.6,-38.2,302.8,0.8289,0.2667,0.1943,0.4515,0.38,-0.31,0.37,43.243057,-0.040755,-6.59,1,435.20
332671,33.63,-4.6,-38.2,302.8,0.8289,0.2667,0.1943,0.4515,0.38,-0.31,0.37,43.243057,-0.040755,-6.59,1,435.20
332684,33.65,-4.8,-38.1,302.7,0.8288,0.2653,0.1956,0.4520,-0.54,0.05,1.00,43.243057,-0.040755,-6.59,1,435.20
332684,33.72,-4.8,-38.1,302.7,0.8288,0.2653,0.1956,0.4520,-0.54,0.05,1.00,43.243057,-0.040755,-6.59,1,435.20
332684,33.79,-4.8,-38.1,302.7,0.8288,0.2653,0.1956,0.4520,-0.54,0.05,1.00,43.243057,-0.040755,-6.59,1,435.20
332684,33.81,-4.8,-38.1,302.7,0.8288,0.2653,0.1956,0.4520,-0.54,0.05,1.00,43.243057,-0.040755,-6.59,1,435.20
332684,33.83,-4.8,-38.1,302.7,0.8288,0.2653,0.1956,0.4520,-0.54,0.05,1.00,43.243057,-0.040755,-6.59,1,435.20
332696,33.83,-4.8,-38.2,302.6,0.8283,0.2655,0.1962,0.4525,-0.51,-0.01,1.14,43.243057,-0.040755,-6.64,1,435.20
332696,33.84,-4.8,-38.2,302.6,0.8283,0.2655,0.1962,0.4525,-0.51,-0.01,1.14,43.243057,-0.040755,-6.64,1,435.20
332696,33.86,-4.8,-38.2,302.6,0.8283,0.2655,0.1962,0.4525,-0.51,-0.01,1.14,43.243057,-0.040755,-6.64,1,435.20
332696,33.86,-4.8,-38.2,302.6,0.8283,0.2655,0.1962,0.4525,-0.51,-0.01,1.14,43.243057,-0.040755,-6.64,1,435.20
332696,33.88,-4.8,-38.2,302.6,0.8283,0.2655,0.1962,0.4525,-0.51,-0.01,1.14,43.243057,-0.040755,-6.64,1,435.20
332709,33.86,-4.8,-38.3,302.5,0.8277,0.2660,0.1964,0.4532,-0.74,0.12,1.07,43.243057,-0.040755,-6.64,1,435.20
332709,33.86,-4.8,-38.3,302.5,0.8277,0.2660,0.1964,0.4532,-0.74,0.12,1.07,43.243057,-0.040755,-6.64,1,435.20
332709,33.84,-4.8,-38.3,302.5,0.8277,0.2660,0.1964,0.4532,-0.74,0.12,1.07,43.243057,-0.040755,-6.64,1,435.20
332709,33.83,-4.8,-38.3,302.5,0.8277,0.2660,0.1964,0.4532,-0.74,0.12,1.07,43.243057,-0.040755,-6.64,1,435.20
332709,33.81,-4.8,-38.3,302.5,0.8277,0.2660,0.1964,0.4532,-0.74,0.12,1.07,43.243057,-0.040755,-6.64,1,435.20
332722,33.83,-4.6,-38.3,302.4,0.8272,0.2666,0.1959,0.4541,-0.47,0.12,0.51,43.243057,-0.040755,-6.64,1,435.20
332722,33.83,-4.6,-38.3,302.4,0.8272,0.2666,0.1959,0.4541,-0.47,0.12,0.51,43.243057,-0.040755,-6.64,1,435.20
332722,33.86,-4.6,-38.3,302.4,0.8272,0.2666,0.1959,0.4541,-0.47,0.12,0.51,43.243057,-0.040755,-6.64,1,435.20
332722,33.88,-4.6,-38.3,302.4,0.8272,0.2666,0.1959,0.4541,-0.47,0.12,0.51,43.243057,-0.040755,-6.64,1,435.20
332722,33.88,-4.6,-38.3,302.4,0.8272,0.2666,0.1959,0.4541,-0.47,0.12,0.51,43.243057,-0.040755,-6.64,1,435.20
332735,33.93,-4.4,-38.4,302.2,0.8264,0.2678,0.1947,0.4553,0.31,-0.31,0.34,43.243057,-0.040755,-6.64,1,435.20
332735,34.00,-4.4,-38.4,302.2,0.8264,0.2678,0.1947,0.4553,0.31,-0.31,0.34,43.243057,-0.040755,-6.64,1,435.20
332735,34.04,-4.4,-38.4,302.2,0.8264,0.2678,0.1947,0.4553,0.31,-0.31,0.34,43.243057,-0.040755,-6.64,1,435.20
332735,34.11,-4.4,-38.4,302.2,0.8264,0.2678,0.1947,0.4553,0.31,-0.31,0.34,43.243057,-0.040755,-6.64,1,435.20
332735,34.16,-4.4,-38.4,302.2,0.8264,0.2678,0.1947,0.4553,0.31,-0.31,0.34,43.243057,-0.040755,-6.64,1,435.20
332747,34.20,-4.3,-38.5,302.1,0.8259,0.2687,0.1946,0.4556,0.00,-0.41,0.18,43.243057,-0.040755,-6.71,1,435.20
332747,34.22,-4.3,-38.5,302.1,0.8259,0.2687,0.1946,0.4556,0.00,-0.41,0.18,43.243057,-0.040755,-6.71,1,435.20
332747,34.27,-4.3,-38.5,302.1,0.8259,0.2687,0.1946,0.4556,0.00,-0.41,0.18,43.243057,-0.040755,-6.71,1,435.20
332747,34.25,-4.3,-38.5,302.1,0.8259,0.2687,0.1946,0.4556,0.00,-0.41,0.18,43.243057,-0.040755,-6.71,1,435.20
332747,34.25,-4.3,-38.5,302.1,0.8259,0.2687,0.1946,0.4556,0.00,-0.41,0.18,43.243057,-0.040755,-6.71,1,435.20
332760,34.27,-4.3,-38.6,302.1,0.8256,0.2698,0.1945,0.4557,-0.05,0.11,0.00,43.243057,-0.040755,-6.71,1,435.20
332760,34.27,-4.3,-38.6,302.1,0.8256,0.2698,0.1945,0.4557,-0.05,0.11,0.00,43.243057,-0.040755,-6.71,1,435.20
332760,34.25,-4.3,-38.6,302.1,0.8256,0.2698,0.1945,0.4557,-0.05,0.11,0.00,43.243057,-0.040755,-6.71,1,435.20
332760,34.24,-4.3,-38.6,302.1,0.8256,0.2698,0.1945,0.4557,-0.05,0.11,0.00,43.243057,-0.040755,-6.71,1,435.20
332760,34.18,-4.3,-38.6,302.1,0.8256,0.2698,0.1945,0.4557,-0.05,0.11,0.00,43.243057,-0.040755,-6.71,1,435.20
332773,34.18,-4.2,-38.6,302.1,0.8253,0.2705,0.1944,0.4557,-0.19,-0.05,-0.40,43.243057,-0.040755,-6.71,1,435.20
332773,34.15,-4.2,-38.6,302.1,0.8253,0.2705,0.1944,0.4557,-0.19,-0.05,-0.40,43.243057,-0.040755,-6.71,1,435.20
332773,34.11,-4.2,-38.6,302.1,0.8253,0.2705,0.1944,0.4557,-0.19,-0.05,-0.40,43.243057,-0.040755,-6.71,1,435.20
332773,34.09,-4.2,-38.6,302.1,0.8253,0.2705,0.1944,0.4557,-0.19,-0.05,-0.40,43.243057,-0.040755,-6.71,1,435.20
332773,34.06,-4.2,-38.6,302.1,0.8253,0.2705,0.1944,0.4557,-0.19,-0.05,-0.40,43.243057,-0.040755,-6.71,1,435.20
332786,34.00,-4.1,-38.8,302.1,0.8251,0.2719,0.1943,0.4553,0.12,0.11,-0.52,43.243057,-0.040755,-6.71,1,435.20
332786,33.99,-4.1,-38.8,302.1,0.8251,0.2719,0.1943,0.4553,0.12,0.11,-0.52,43.243057,-0.040755,-6.71,1,435.20
332786,33.99,-4.1,-38.8,302.1,0.8251,0.2719,0.1943,0.4553,0.12,0.11,-0.52,43.243057,-0.040755,-6.71,1,435.20
332786,33.97,-4.1,-38.8,302.1,0.8251,0.2719,0.1943,0.4553,0.12,0.11,-0.52,43.243057,-0.040755,-6.71,1,435.20
332786,33.97,-4.1,-38.8,302.1,0.8251,0.2719,0.1943,0.4553,0.12,0.11,-0.52,43.243057,-0.040755,-6.71,1,435.20
332798,33.93,-4.1,-38.8,302.1,0.8250,0.2724,0.1943,0.4552,0.00,0.00,-0.57,43.243057,-0.040755,-6.80,1,435.20
332798,33.93,-4.1,-38.8,302.1,0.8250,0.2724,0.1943,0.4552,0.00,0.00,-0.57,43.243057,-0.040755,-6.80,1,435.20
332798,33.91,-4.1,-38.8,302.1,0.8250,0.2724,0.1943,0.4552,0.00,0.00,-0.57,43.243057,-0.040755,-6.80,1,435.20
332798,33.93,-4.1,-38.8,302.1,0.8250,0.2724,0.1943,0.4552,0.00,0.00,-0.57,43.243057,-0.040755,-6.80,1,435.20
332798,33.90,-4.1,-38.8,302.1,0.8250,0.2724,0.1943,0.4552,0.00,0.00,-0.57,43.243057,-0.040755,-6.80,1,435.20
332811,33.86,-4.1,-38.9,302.1,0.8249,0.2728,0.1944,0.4552,0.13,-0.03,-0.56,43.243057,-0.040755,-6.80,1,435.20
332811,33.86,-4.1,-38.9,302.1,0.8249,0.2728,0.1944,0.4552,0.13,-0.03,-0.56,43.243057,-0.040755,-6.80,1,435.20
332811,33.84,-4.1,-38.9,302.1,0.8249,0.2728,0.1944,0.4552,0.13,-0.03,-0.56,43.243057,-0.040755,-6.80,1,435.20
332811,33.83,-4.1,-38.9,302.1,0.8249,0.2728,0.1944,0.4552,0.13,-0.03,-0.56,43.243057,-0.040755,-6.80,1,435.20
332811,33.79,-4.1,-38.9,302.1,0.8249,0.2728,0.1944,0.4552,0.13,-0.03,-0.56,43.243057,-0.040755,-6.80,1,435.20
332824,33.79,-4.1,-38.9,302.1,0.8248,0.2730,0.1946,0.4552,0.22,-0.07,-0.56,43.243057,-0.040755,-6.80,1,435.20
332824,33.79,-4.1,-38.9,302.1,0.8248,0.2730,0.1946,0.4552,0.22,-0.07,-0.56,43.243057,-0.040755,-6.80,1,435.20
332824,33.77,-4.1,-38.9,302.1,0.8248,0.2730,0.1946,0.4552,0.22,-0.07,-0.56,43.243057,-0.040755,-6.80,1,435.20
332824,33.75,-4.1,-38.9,302.1,0.8248,0.2730,0.1946,0.4552,0.22,-0.07,-0.56,43.243057,-0.040755,-6.80,1,435.20
332824,33.75,-4.1,-38.9,302.1,0.8248,0.2730,0.1946,0.4552,0.22,-0.07,-0.56,43.243057,-0.040755,-6.80,1,435.20
332837,33.72,-4.1,-39.0,302.1,0.8244,0.2731,0.1954,0.4554,0.10,-0.17,-0.37,43.243057,-0.040755,-6.80,1,435.20
332837,33.70,-4.1,-39.0,302.1,0.8244,0.2731,0.1954,0.4554,0.10,-0.17,-0.37,43.243057,-0.040755,-6.80,1,435.20
332837,33.65,-4.1,-39.0,302.1,0.8244,0.2731,0.1954,0.4554,0.10,-0.17,-0.37,43.243057,-0.040755,-6.80,1,435.20
332837,33.65,-4.1,-39.0,302.1,0.8244,0.2731,0.1954,0.4554,0.10,-0.17,-0.37,43.243057,-0.040755,-6.80,1,435.20
332837,33.63,-4.1,-39.0,302.1,0.8244,0.2731,0.1954,0.4554,0.10,-0.17,-0.37,43.243057,-0.040755,-6.80,1,435.20
332849,33.58,-4.1,-39.0,302.0,0.8240,0.2733,0.1959,0.4558,0.11,-0.15,-0.12,43.243057,-0.040755,-6.89,1,435.20
332849,33.54,-4.1,-39.0,302.0,0.8240,0.2733,0.1959,0.4558,0.11,-0.15,-0.12,43.243057,-0.040755,-6.89,1,435.20
332849,33.52,-4.1,-39.0,302.0,0.8240,0.2733,0.1959,0.4558,0.11,-0.15,-0.12,43.243057,-0.040755,-6.89,1,435.20
332849,33.47,-4.1,-39.0,302.0,0.8240,0.2733,0.1959,0.4558,0.11,-0.15,-0.12,43.243057,-0.040755,-6.89,1,435.20
332849,33.47,-4.1,-39.0,302.0,0.8240,0.2733,0.1959,0.4558,0.11,-0.15,-0.12,43.243057,-0.040755,-6.89,1,435.20
332862,33.47,-4.1,-39.1,302.0,0.8238,0.2733,0.1962,0.4561,0.07,-0.27,-0.09,43.243057,-0.040755,-6.89,1,435.20
332862,33.43,-4.1,-39.1,302.0,0.8238,0.2733,0.1962,0.4561,0.07,-0.27,-0.09,43.243057,-0.040755,-6.89,1,435.20
332862,33.43,-4.1,-39.1,302.0,0.8238,0.2733,0.1962,0.4561,0.07,-0.27,-0.09,43.243057,-0.040755,-6.89,1,435.20
332862,33.41,-4.1,-39.1,302.0,0.8238,0.2733,0.1962,0.4561,0.07,-0.27,-0.09,43.243057,-0.040755,-6.89,1,435.20
332862,33.41,-4.1,-39.1,302.0,0.8238,0.2733,0.1962,0.4561,0.07,-0.27,-0.09,43.243057,-0.040755,-6.89,1,435.20
332875,33.43,-4.2,-39.1,302.0,0.8236,0.2733,0.1965,0.4562,0.05,-0.46,-0.10,43.243057,-0.040755,-6.89,1,435.20
332875,33.41,-4.2,-39.1,302.0,0.8236,0.2733,0.1965,0.4562,0.05,-0.46,-0.10,43.243057,-0.040755,-6.89,1,435.20
332875,33.40,-4.2,-39.1,302.0,0.8236,0.2733,0.1965,0.4562,0.05,-0.46,-0.10,43.243057,-0.040755,-6.89,1,435.20
332875,33.38,-4.2,-39.1,302.0,0.8236,0.2733,0.1965,0.4562,0.05,-0.46,-0.10,43.243057,-0.040755,-6.89,1,435.20
332875,33.38,-4.2,-39.1,302.0,0.8236,0.2733,0.1965,0.4562,0.05,-0.46,-0.10,43.243057,-0.040755,-6.89,1,435.20
332887,33.38,-4.2,-39.1,302.0,0.8236,0.2733,0.1968,0.4562,0.34,-0.51,-0.13,43.243057,-0.040755,-6.89,1,435.20
332887,33.40,-4.2,-39.1,302.0,0.8236,0.2733,0.1968,0.4562,0.34,-0.51,-0.13,43.243057,-0.040755,-6.89,1,435.20
332887,33.38,-4.2,-39.1,302.0,0.8236,0.2733,0.1968,0.4562,0.34,-0.51,-0.13,43.243057,-0.040755,-6.89,1,435.20
332887,33.40,-4.2,-39.1,302.0,0.8236,0.2733,0.1968,0.4562,0.34,-0.51,-0.13,43.243057,-0.040755,-6.89,1,435.20
332887,33.36,-4.2,-39.1,302.0,0.8236,0.2733,0.1968,0.4562,0.34,-0.51,-0.13,43.243057,-0.040755,-6.89,1,435.20
332900,33.36,-4.3,-39.1,302.0,0.8235,0.2733,0.1975,0.4560,0.20,-0.43,-0.34,43.243057,-0.040755,-6.99,1,435.20
332900,33.36,-4.3,-39.1,302.0,0.8235,0.2733,0.1975,0.4560,0.20,-0.43,-0.34,43.243057,-0.040755,-6.99,1,435.20
332900,33.36,-4.3,-39.1,302.0,0.8235,0.2733,0.1975,0.4560,0.20,-0.43,-0.34,43.243057,-0.040755,-6.99,1,435.20
332900,33.34,-4.3,-39.1,302.0,0.8235,0.2733,0.1975,0.4560,0.20,-0.43,-0.34,43.243057,-0.040755,-6.99,1,435.20
332900,33.38,-4.3,-39.1,302.0,0.8235,0.2733,0.1975,0.4560,0.20,-0.43,-0.34,43.243057,-0.040755,-6.99,1,435.20
332913,33.36,-4.3,-39.1,302.0,0.8236,0.2731,0.1978,0.4559,0.12,-0.25,-0.54,43.243057,-0.040755,-6.99,1,435.20
332913,33.36,-4.3,-39.1,302.0,0.8236,0.2731,0.1978,0.4559,0.12,-0.25,-0.54,43.243057,-0.040755,-6.99,1,435.20
332913,33.34,-4.3,-39.1,302.0,0.8236,0.2731,0.1978,0.4559,0.12,-0.25,-0.54,43.243057,-0.040755,-6.99,1,435.20
332913,33.38,-4.3,-39.1,302.0,0.8236,0.2731,0.1978,0.4559,0.12,-0.25,-0.54,43.243057,-0.040755,-6.99,1,435.20
332913,33.43,-4.3,-39.1,302.0,0.8236,0.2731,0.1978,0.4559,0.12,-0.25,-0.54,43.243057,-0.040755,-6.99,1,435.20
332926,33.47,-4.4,-39.1,302.0,0.8238,0.2725,0.1982,0.4557,0.22,-0.02,-0.55,43.243057,-0.040755,-6.99,1,435.20
332926,33.56,-4.4,-39.1,302.0,0.8238,0.2725,0.1982,0.4557,0.22,-0.02,-0.55,43.243057,-0.040755,-6.99,1,435.20
332926,33.63,-4.4,-39.1,302.0,0.8238,0.2725,0.1982,0.4557,0.22,-0.02,-0.55,43.243057,-0.040755,-6.99,1,435.20
332926,33.70,-4.4,-39.1,302.0,0.8238,0.2725,0.1982,0.4557,0.22,-0.02,-0.55,43.243057,-0.040755,-6.99,1,435.20
332926,33.72,-4.4,-39.1,302.0,0.8238,0.2725,0.1982,0.4557,0.22,-0.02,-0.55,43.243057,-0.040755,-6.99,1,435.20
332939,33.75,-4.5,-39.0,302.1,0.8240,0.2717,0.1986,0.4555,0.05,0.05,-0.43,43.243057,-0.040755,-6.99,1,435.20
332939,33.75,-4.5,-39.0,302.1,0.8240,0.2717,0.1986,0.4555,0.05,0.05,-0.43,43.243057,-0.040755,-6.99,1,435.20
332939,33.68,-4.5,-39.0,302.1,0.8240,0.2717,0.1986,0.4555,0.05,0.05,-0.43,43.243057,-0.040755,-6.99,1,435.20
332939,33.61,-4.5,-39.0,302.1,0.8240,0.2717,0.1986,0.4555,0.05,0.05,-0.43,43.243057,-0.040755,-6.99,1,435.20
332939,33.56,-4.5,-39.0,302.1,0.8240,0.2717,0.1986,0.4555,0.05,0.05,-0.43,43.243057,-0.040755,-6.99,1,435.20
332951,33.49,-4.7,-38.9,302.1,0.8247,0.2698,0.1992,0.4552,0.11,-0.03,-0.40,43.243057,-0.040755,-7.07,1,435.20
332951,33.40,-4.7,-38.9,302.1,0.8247,0.2698,0.1992,0.4552,0.11,-0.03,-0.40,43.243057,-0.040755,-7.07,1,435.20
332951,33.25,-4.7,-38.9,302.1,0.8247,0.2698,0.1992,0.4552,0.11,-0.03,-0.40,43.243057,-0.040755,-7.07,1,435.20
332951,33.15,-4.7,-38.9,302.1,0.8247,0.2698,0.1992,0.4552,0.11,-0.03,-0.40,43.243057,-0.040755,-7.07,1,435.20
332951,33.09,-4.7,-38.9,302.1,0.8247,0.2698,0.1992,0.4552,0.11,-0.03,-0.40,43.243057,-0.040755,-7.07,1,435.20
332964,33.06,-4.7,-38.8,302.1,0.8246,0.2694,0.1993,0.4556,-0.05,0.38,-0.34,43.243057,-0.040755,-7.07,1,435.20
332964,33.06,-4.7,-38.8,302.1,0.8246,0.2694,0.1993,0.4556,-0.05,0.38,-0.34,43.243057,-0.040755,-7.07,1,435.20
332964,33.02,-4.7,-38.8,302.1,0.8246,0.2694,0.1993,0.4556,-0.05,0.38,-0.34,43.243057,-0.040755,-7.07,1,435.20
332964,33.00,-4.7,-38.8,302.1,0.8246,0.2694,0.1993,0.4556,-0.05,0.38,-0.34,43.243057,-0.040755,-7.07,1,435.20
332964,33.00,-4.7,-38.8,302.1,0.8246,0.2694,0.1993,0.4556,-0.05,0.38,-0.34,43.243057,-0.040755,-7.07,1,435.20
332977,32.97,-4.6,-38.8,302.0,0.8242,0.2688,0.1991,0.4567,-0.15,-0.11,-0.80,43.243057,-0.040755,-7.07,1,435.20
332977,32.99,-4.6,-38.8,302.0,0.8242,0.2688,0.1991,0.4567,-0.15,-0.11,-0.80,43.243057,-0.040755,-7.07,1,435.20
332977,33.02,-4.6,-38.8,302.0,0.8242,0.2688,0.1991,0.4567,-0.15,-0.11,-0.80,43.243057,-0.040755,-7.07,1,435.20
332977,32.99,-4.6,-38.8,302.0,0.8242,0.2688,0.1991,0.4567,-0.15,-0.11,-0.80,43.243057,-0.040755,-7.07,1,435.20
332977,32.95,-4.6,-38.8,302.0,0.8242,0.2688,0.1991,0.4567,-0.15,-0.11,-0.80,43.243057,-0.040755,-7.07,1,435.20
332990,32.93,-4.6,-38.7,301.8,0.8240,0.2684,0.1992,0.4574,0.25,0.37,-0.47,43.243057,-0.040755,-7.07,1,435.20
332990,32.93,-4.6,-38.7,301.8,0.8240,0.2684,0.1992,0.4574,0.25,0.37,-0.47,43.243057,-0.040755,-7.07,1,435.20
332990,32.90,-4.6,-38.7,301.8,0.8240,0.2684,0.1992,0.4574,0.25,0.37,-0.47,43.243057,-0.040755,-7.07,1,435.20
332990,32.93,-4.6,-38.7,301.8,0.8240,0.2684,0.1992,0.4574,0.25,0.37,-0.47,43.243057,-0.040755,-7.07,1,435.20
332990,32.91,-4.6,-38.7,301.8,0.8240,0.2684,0.1992,0.4574,0.25,0.37,-0.47,43.243057,-0.040755,-7.07,1,435.20
333002,32.90,-4.7,-38.7,301.6,0.8231,0.2678,0.1997,0.4590,0.00,-0.11,-0.55,43.243057,-0.040755,-7.11,1,435.20
333002,32.86,-4.7,-38.7,301.6,0.8231,0.2678,0.1997,0.4590,0.00,-0.11,-0.55,43.243057,-0.040755,-7.11,1,435.20
333002,32.84,-4.7,-38.7,301.6,0.8231,0.2678,0.1997,0.4590,0.00,-0.11,-0.55,43.243057,-0.040755,-7.11,1,435.20
333002,32.77,-4.7,-38.7,301.6,0.8231,0.2678,0.1997,0.4590,0.00,-0.11,-0.55,43.243057,-0.040755,-7.11,1,435.20
333002,32.70,-4.7,-38.7,301.6,0.8231,0.2678,0.1997,0.4590,0.00,-0.11,-0.55,43.243057,-0.040755,-7.11,1,435.20
333015,32.61,-4.7,-38.7,301.5,0.8229,0.2672,0.1999,0.4597,0.02,0.00,-0.43,43.243057,-0.040755,-7.11,1,435.20
333015,32.54,-4.7,-38.7,301.5,0.8229,0.2672,0.1999,0.4597,0.02,0.00,-0.43,43.243057,-0.040755,-7.11,1,435.20
333015,32.45,-4.7,-38.7,301.5,0.8229,0.2672,0.1999,0.4597,0.02,0.00,-0.43,43.243057,-0.040755,-7.11,1,435.20
333015,32.40,-4.7,-38.7,301.5,0.8229,0.2672,0.1999,0.4597,0.02,0.00,-0.43,43.243057,-0.040755,-7.11,1,435.20
333015,32.47,-4.7,-38.7,301.5,0.8229,0.2672,0.1999,0.4597,0.02,0.00,-0.43,43.243057,-0.040755,-7.11,1,435.20
333028,32.66,-4.8,-38.6,301.5,0.8228,0.2666,0.2001,0.4601,-0.20,0.57,0.03,43.243057,-0.040755,-7.11,1,435.20
333028,32.65,-4.8,-38.6,301.5,0.8228,0.2666,0.2001,0.4601,-0.20,0.57,0.03,43.243057,-0.040755,-7.11,1,435.20
333028,32.75,-4.8,-38.6,301.5,0.8228,0.2666,0.2001,0.4601,-0.20,0.57,0.03,43.243057,-0.040755,-7.11,1,435.20
333028,32.93,-4.8,-38.6,301.5,0.8228,0.2666,0.2001,0.4601,-0.20,0.57,0.03,43.243057,-0.040755,-7.11,1,435.20
333028,32.99,-4.8,-38.6,301.5,0.8228,0.2666,0.2001,0.4601,-0.20,0.57,0.03,43.243057,-0.040755,-7.11,1,435.20
333041,32.91,-4.7,-38.6,301.4,0.8223,0.2664,0.2002,0.4609,-0.50,0.28,0.25,43.243057,-0.040755,-7.11,1,435.20
333041,32.90,-4.7,-38.6,301.4,0.8223,0.2664,0.2002,0.4609,-0.50,0.28,0.25,43.243057,-0.040755,-7.11,1,435.20
333041,32.88,-4.7,-38.6,301.4,0.8223,0.2664,0.2002,0.4609,-0.50,0.28,0.25,43.243057,-0.040755,-7.11,1,435.20
333041,32.84,-4.7,-38.6,301.4,0.8223,0.2664,0.2002,0.4609,-0.50,0.28,0.25,43.243057,-0.040755,-7.11,1,435.20
333041,32.79,-4.7,-38.6,301.4,0.8223,0.2664,0.2002,0.4609,-0.50,0.28,0.25,43.243057,-0.040755,-7.11,1,435.20
333053,32.66,-4.5,-38.5,301.0,0.8209,0.2659,0.1988,0.4644,-0.60,0.05,0.20,43.243057,-0.040755,-7.12,1,435.20
333053,32.52,-4.5,-38.5,301.0,0.8209,0.2659,0.1988,0.4644,-0.60,0.05,0.20,43.243057,-0.040755,-7.12,1,435.20
333053,32.43,-4.5,-38.5,301.0,0.8209,0.2659,0.1988,0.4644,-0.60,0.05,0.20,43.243057,-0.040755,-7.12,1,435.20
333053,32.45,-4.5,-38.5,301.0,0.8209,0.2659,0.1988,0.4644,-0.60,0.05,0.20,43.243057,-0.040755,-7.12,1,435.20
333053,32.50,-4.5,-38.5,301.0,0.8209,0.2659,0.1988,0.4644,-0.60,0.05,0.20,43.243057,-0.040755,-7.12,1,435.20
333066,32.54,-4.4,-38.3,300.8,0.8208,0.2651,0.1977,0.4656,-0.55,0.17,-0.01,43.243057,-0.040755,-7.12,1,435.20
333066,32.54,-4.4,-38.3,300.8,0.8208,0.2651,0.1977,0.4656,-0.55,0.17,-0.01,43.243057,-0.040755,-7.12,1,435.20
333066,32.50,-4.4,-38.3,300.8,0.8208,0.2651,0.1977,0.4656,-0.55,0.17,-0.01,43.243057,-0.040755,-7.12,1,435.20
333066,32.45,-4.4,-38.3,300.8,0.8208,0.2651,0.1977,0.4656,-0.55,0.17,-0.01,43.243057,-0.040755,-7.12,1,435.20
333066,32.43,-4.4,-38.3,300.8,0.8208,0.2651,0.1977,0.4656,-0.55,0.17,-0.01,43.243057,-0.040755,-7.12,1,435.20
333078,32.36,-4.3,-38.1,300.6,0.8212,0.2623,0.1940,0.4680,0.22,-0.28,0.18,43.243057,-0.040755,-7.12,1,435.20
333078,32.29,-4.3,-38.1,300.6,0.8212,0.2623,0.1940,0.4680,0.22,-0.28,0.18,43.243057,-0.040755,-7.12,1,435.20
333078,32.20,-4.3,-38.1,300.6,0.8212,0.2623,0.1940,0.4680,0.22,-0.28,0.18,43.243057,-0.040755,-7.12,1,435.20
333078,32.02,-4.3,-38.1,300.6,0.8212,0.2623,0.1940,0.4680,0.22,-0.28,0.18,43.243057,-0.040755,-7.12,1,435.20
333078,31.84,-4.3,-38.1,300.6,0.8212,0.2623,0.1940,0.4680,0.22,-0.28,0.18,43.243057,-0.040755,-7.12,1,435.20
333091,0.00,-4.1,-37.8,300.6,0.8213,0.2611,0.1925,0.4691,0.05,-0.17,0.36,43.243057,-0.040755,-7.12,1,435.20
333091,0.00,-4.1,-37.8,300.6,0.8213,0.2611,0.1925,0.4691,0.05,-0.17,0.36,43.243057,-0.040755,-7.12,1,435.20
333091,0.00,-4.1,-37.8,300.6,0.8213,0.2611,0.1925,0.4691,0.05,-0.17,0.36,43.243057,-0.040755,-7.12,1,435.20
333091,0.00,-4.1,-37.8,300.6,0.8213,0.2611,0.1925,0.4691,0.05,-0.17,0.36,43.243057,-0.040755,-7.12,1,435.20
333091,0.00,-4.1,-37.8,300.6,0.8213,0.2611,0.1925,0.4691,0.05,-0.17,0.36,43.243057,-0.040755,-7.12,1,435.20
333104,0.00,-4.0,-37.5,300.4,0.8215,0.2601,0.1915,0.4697,-0.12,-0.19,0.11,43.243057,-0.040755,-7.11,1,435.20
333104,0.00,-4.0,-37.5,300.4,0.8215,0.2601,0.1915,0.4697,-0.12,-0.19,0.11,43.243057,-0.040755,-7.11,1,435.20
333104,0.00,-4.0,-37.5,300.4,0.8215,0.2601,0.1915,0.4697,-0.12,-0.19,0.11,43.243057,-0.040755,-7.11,1,435.20
333104,0.00,-4.0,-37.5,300.4,0.8215,0.2601,0.1915,0.4697,-0.12,-0.19,0.11,43.243057,-0.040755,-7.11,1,435.20
333104,0.00,-4.0,-37.5,300.4,0.8215,0.2601,0.1915,0.4697,-0.12,-0.19,0.11,43.243057,-0.040755,-7.11,1,435.20
333116,0.00,-3.9,-37.3,300.3,0.8216,0.2592,0.1907,0.4703,-0.10,0.10,0.12,43.243057,-0.040755,-7.11,1,435.29
333116,0.00,-3.9,-37.3,300.3,0.8216,0.2592,0.1907,0.4703,-0.10,0.10,0.12,43.243057,-0.040755,-7.11,1,435.29
333116,0.00,-3.9,-37.3,300.3,0.8216,0.2592,0.1907,0.4703,-0.10,0.10,0.12,43.243057,-0.040755,-7.11,1,435.29
333116,0.00,-3.9,-37.3,300.3,0.8216,0.2592,0.1907,0.4703,-0.10,0.10,0.12,43.243057,-0.040755,-7.11,1,435.29
333116,0.00,-3.9,-37.3,300.3,0.8216,0.2592,0.1907,0.4703,-0.10,0.10,0.12,43.243057,-0.040755,-7.11,1,435.29
333129,0.00,-3.7,-37.0,300.0,0.8212,0.2573,0.1886,0.4730,-0.40,0.02,0.09,43.243057,-0.040755,-7.11,1,435.29
333129,0.00,-3.7,-37.0,300.0,0.8212,0.2573,0.1886,0.4730,-0.40,0.02,0.09,43.243057,-0.040755,-7.11,1,435.29
333129,0.00,-3.7,-37.0,300.0,0.8212,0.2573,0.1886,0.4730,-0.40,0.02,0.09,43.243057,-0.040755,-7.11,1,435.29
333129,0.00,-3.7,-37.0,300.0,0.8212,0.2573,0.1886,0.4730,-0.40,0.02,0.09,43.243057,-0.040755,-7.11,1,435.29
333129,0.00,-3.7,-37.0,300.0,0.8212,0.2573,0.1886,0.4730,-0.40,0.02,0.09,43.243057,-0.040755,-7.11,1,435.29
333143,0.00,-3.5,-36.6,299.7,0.8207,0.2548,0.1863,0.4761,-0.00,-0.30,0.61,43.243057,-0.040755,-7.11,1,435.29
333143,0.00,-3.5,-36.6,299.7,0.8207,0.2548,0.1863,0.4761,-0.00,-0.30,0.61,43.243057,-0.040755,-7.11,1,435.29
333143,31.94,-3.5,-36.6,299.7,0.8207,0.2548,0.1863,0.4761,-0.00,-0.30,0.61,43.243057,-0.040755,-7.11,1,435.29
333143,32.13,-3.5,-36.6,299.7,0.8207,0.2548,0.1863,0.4761,-0.00,-0.30,0.61,43.243057,-0.040755,-7.11,1,435.29
333143,32.20,-3.5,-36.6,299.7,0.8207,0.2548,0.1863,0.4761,-0.00,-0.30,0.61,43.243057,-0.040755,-7.11,1,435.29
333155,32.22,-3.5,-36.6,299.7,0.8207,0.2548,0.1863,0.4761,-0.00,-0.30,0.61,43.243057,-0.040755,-7.12,1,435.29
333155,32.24,-3.5,-36.6,299.7,0.8207,0.2548,0.1863,0.4761,-0.00,-0.30,0.61,43.243057,-0.040755,-7.12,1,435.29
333155,32.18,-3.5,-36.6,299.7,0.8207,0.2548,0.1863,0.4761,-0.00,-0.30,0.61,43.243057,-0.040755,-7.12,1,435.29
333155,32.15,-3.5,-36.6,299.7,0.8207,0.2548,0.1863,0.4761,-0.00,-0.30,0.61,43.243057,-0.040755,-7.12,1,435.29
333155,32.15,-3.5,-36.6,299.7,0.8207,0.2548,0.1863,0.4761,-0.00,-0.30,0.61,43.243057,-0.040755,-7.12,1,435.29
333168,32.15,-3.4,-36.2,299.2,0.8197,0.2521,0.1846,0.4799,0.20,-0.79,0.63,43.243057,-0.040755,-7.12,1,435.29
333168,32.16,-3.4,-36.2,299.2,0.8197,0.2521,0.1846,0.4799,0.20,-0.79,0.63,43.243057,-0.040755,-7.12,1,435.29
333168,32.16,-3.4,-36.2,299.2,0.8197,0.2521,0.1846,0.4799,0.20,-0.79,0.63,43.243057,-0.040755,-7.12,1,435.29
333168,32.16,-3.4,-36.2,299.2,0.8197,0.2521,0.1846,0.4799,0.20,-0.79,0.63,43.243057,-0.040755,-7.12,1,435.29
333168,32.18,-3.4,-36.2,299.2,0.8197,0.2521,0.1846,0.4799,0.20,-0.79,0.63,43.243057,-0.040755,-7.12,1,435.29
333181,32.16,-3.4,-36.1,299.1,0.8193,0.2509,0.1844,0.4812,0.07,-0.81,0.45,43.243057,-0.040755,-7.12,1,435.29
333181,32.18,-3.4,-36.1,299.1,0.8193,0.2509,0.1844,0.4812,0.07,-0.81,0.45,43.243057,-0.040755,-7.12,1,435.29
333181,32.18,-3.4,-36.1,299.1,0.8193,0.2509,0.1844,0.4812,0.07,-0.81,0.45,43.243057,-0.040755,-7.12,1,435.29
333181,32.18,-3.4,-36.1,299.1,0.8193,0.2509,0.1844,0.4812,0.07,-0.81,0.45,43.243057,-0.040755,-7.12,1,435.29
333181,32.18,-3.4,-36.1,299.1,0.8193,0.2509,0.1844,0.4812,0.07,-0.81,0.45,43.243057,-0.040755,-7.12,1,435.29
333194,32.20,-3.5,-35.9,299.1,0.8197,0.2489,0.1846,0.4815,-0.09,-0.12,0.47,43.243057,-0.040755,-7.12,1,435.29
333194,32.20,-3.5,-35.9,299.1,0.8197,0.2489,0.1846,0.4815,-0.09,-0.12,0.47,43.243057,-0.040755,-7.12,1,435.29
333194,32.20,-3.5,-35.9,299.1,0.8197,0.2489,0.1846,0.4815,-0.09,-0.12,0.47,43.243057,-0.040755,-7.12,1,435.29
333194,32.18,-3.5,-35.9,299.1,0.8197,0.2489,0.1846,0.4815,-0.09,-0.12,0.47,43.243057,-0.040755,-7.12,1,435.29
333194,32.20,-3.5,-35.9,299.1,0.8197,0.2489,0.1846,0.4815,-0.09,-0.12,0.47,43.243057,-0.040755,-7.12,1,435.29
333206,32.20,-3.5,-35.9,299.1,0.8197,0.2489,0.1846,0.4815,-0.09,-0.12,0.47,43.243057,-0.040755,-7.15,1,435.29
333206,32.22,-3.5,-35.9,299.1,0.8197,0.2489,0.1846,0.4815,-0.09,-0.12,0.47,43.243057,-0.040755,-7.15,1,435.29
333206,32.20,-3.5,-35.9,299.1,0.8197,0.2489,0.1846,0.4815,-0.09,-0.12,0.47,43.243057,-0.040755,-7.15,1,435.29
333206,32.22,-3.5,-35.9,299.1,0.8197,0.2489,0.1846,0.4815,-0.09,-0.12,0.47,43.243057,-0.040755,-7.15,1,435.29
333206,32.25,-3.5,-35.9,299.1,0.8197,0.2489,0.1846,0.4815,-0.09,-0.12,0.47,43.243057,-0.040755,-7.15,1,435.29
333219,32.34,-3.5,-35.6,299.1,0.8204,0.2471,0.1830,0.4819,-0.45,-0.13,0.67,43.243057,-0.040755,-7.15,1,435.29
333219,32.40,-3.5,-35.6,299.1,0.8204,0.2471,0.1830,0.4819,-0.45,-0.13,0.67,43.243057,-0.040755,-7.15,1,435.29
333219,32.45,-3.5,-35.6,299.1,0.8204,0.2471,0.1830,0.4819,-0.45,-0.13,0.67,43.243057,-0.040755,-7.15,1,435.29
333219,32.47,-3.5,-35.6,299.1,0.8204,0.2471,0.1830,0.4819,-0.45,-0.13,0.67,43.243057,-0.040755,-7.15,1,435.29
333219,32.34,-3.5,-35.6,299.1,0.8204,0.2471,0.1830,0.4819,-0.45,-0.13,0.67,43.243057,-0.040755,-7.15,1,435.29
333231,32.11,-3.3,-35.3,299.1,0.8211,0.2459,0.1807,0.4821,-0.05,-0.70,0.51,43.243057,-0.040755,-7.15,1,435.29
333231,0.00,-3.3,-35.3,299.1,0.8211,0.2459,0.1807,0.4821,-0.05,-0.70,0.51,43.243057,-0.040755,-7.15,1,435.29
333231,0.00,-3.3,-35.3,299.1,0.8211,0.2459,0.1807,0.4821,-0.05,-0.70,0.51,43.243057,-0.040755,-7.15,1,435.29
333231,0.00,-3.3,-35.3,299.1,0.8211,0.2459,0.1807,0.4821,-0.05,-0.70,0.51,43.243057,-0.040755,-7.15,1,435.29
333231,0.00,-3.3,-35.3,299.1,0.8211,0.2459,0.1807,0.4821,-0.05,-0.70,0.51,43.243057,-0.040755,-7.15,1,435.29
333245,0.00,-3.1,-34.8,299.3,0.8231,0.2435,0.1764,0.4815,0.18,-0.37,-0.05,43.243057,-0.040755,-7.15,1,435.29
333245,29.69,-3.1,-34.8,299.3,0.8231,0.2435,0.1764,0.4815,0.18,-0.37,-0.05,43.243057,-0.040755,-7.15,1,435.29
333245,29.85,-3.1,-34.8,299.3,0.8231,0.2435,0.1764,0.4815,0.18,-0.37,-0.05,43.243057,-0.040755,-7.15,1,435.29
333245,29.96,-3.1,-34.8,299.3,0.8231,0.2435,0.1764,0.4815,0.18,-0.37,-0.05,43.243057,-0.040755,-7.15,1,435.29
333245,27.67,-3.1,-34.8,299.3,0.8231,0.2435,0.1764,0.4815,0.18,-0.37,-0.05,43.243057,-0.040755,-7.15,1,435.29
333257,27.57,-3.1,-34.5,299.5,0.8248,0.2416,0.1742,0.4804,1.36,-1.45,-0.60,43.243057,-0.040755,-7.19,1,435.29
333257,27.54,-3.1,-34.5,299.5,0.8248,0.2416,0.1742,0.4804,1.36,-1.45,-0.60,43.243057,-0.040755,-7.19,1,435.29
333257,27.39,-3.1,-34.5,299.5,0.8248,0.2416,0.1742,0.4804,1.36,-1.45,-0.60,43.243057,-0.040755,-7.19,1,435.29
333257,0.00,-3.1,-34.5,299.5,0.8248,0.2416,0.1742,0.4804,1.36,-1.45,-0.60,43.243057,-0.040755,-7.19,1,435.29
333257,0.00,-3.1,-34.5,299.5,0.8248,0.2416,0.1742,0.4804,1.36,-1.45,-0.60,43.243057,-0.040755,-7.19,1,435.29
333270,0.00,-3.2,-34.3,299.8,0.8264,0.2404,0.1738,0.4784,2.30,-1.46,-1.28,43.243057,-0.040755,-7.19,1,435.29
333270,28.03,-3.2,-34.3,299.8,0.8264,0.2404,0.1738,0.4784,2.30,-1.46,-1.28,43.243057,-0.040755,-7.19,1,435.29
333270,28.20,-3.2,-34.3,299.8,0.8264,0.2404,0.1738,0.4784,2.30,-1.46,-1.28,43.243057,-0.040755,-7.19,1,435.29
333270,28.30,-3.2,-34.3,299.8,0.8264,0.2404,0.1738,0.4784,2.30,-1.46,-1.28,43.243057,-0.040755,-7.19,1,435.29
333270,28.39,-3.2,-34.3,299.8,0.8264,0.2404,0.1738,0.4784,2.30,-1.46,-1.28,43.243057,-0.040755,-7.19,1,435.29
333282,28.47,-3.6,-34.5,300.1,0.8273,0.2402,0.1771,0.4757,1.42,0.02,-2.44,43.243057,-0.040755,-7.19,1,435.29
333282,28.52,-3.6,-34.5,300.1,0.8273,0.2402,0.1771,0.4757,1.42,0.02,-2.44,43.243057,-0.040755,-7.19,1,435.29
333282,28.45,-3.6,-34.5,300.1,0.8273,0.2402,0.1771,0.4757,1.42,0.02,-2.44,43.243057,-0.040755,-7.19,1,435.29
333282,28.11,-3.6,-34.5,300.1,0.8273,0.2402,0.1771,0.4757,1.42,0.02,-2.44,43.243057,-0.040755,-7.19,1,435.29
333282,0.00,-3.6,-34.5,300.1,0.8273,0.2402,0.1771,0.4757,1.42,0.02,-2.44,43.243057,-0.040755,-7.19,1,435.29
333296,0.00,-4.4,-34.8,300.2,0.8269,0.2387,0.1842,0.4746,-0.01,-0.44,-0.36,43.243057,-0.040755,-7.19,1,435.29
333296,0.00,-4.4,-34.8,300.2,0.8269,0.2387,0.1842,0.4746,-0.01,-0.44,-0.36,43.243057,-0.040755,-7.19,1,435.29
333296,31.95,-4.4,-34.8,300.2,0.8269,0.2387,0.1842,0.4746,-0.01,-0.44,-0.36,43.243057,-0.040755,-7.19,1,435.29
333296,32.18,-4.4,-34.8,300.2,0.8269,0.2387,0.1842,0.4746,-0.01,-0.44,-0.36,43.243057,-0.040755,-7.19,1,435.29
333296,32.27,-4.4,-34.8,300.2,0.8269,0.2387,0.1842,0.4746,-0.01,-0.44,-0.36,43.243057,-0.040755,-7.19,1,435.29
333308,32.34,-4.6,-34.9,299.8,0.8248,0.2380,0.1871,0.4774,0.00,-0.37,0.07,43.243057,-0.040755,-7.19,1,435.29
333308,32.40,-4.6,-34.9,299.8,0.8248,0.2380,0.1871,0.4774,0.00,-0.37,0.07,43.243057,-0.040755,-7.19,1,435.29
333308,32.41,-4.6,-34.9,299.8,0.8248,0.2380,0.1871,0.4774,0.00,-0.37,0.07,43.243057,-0.040755,-7.19,1,435.29
333308,32.41,-4.6,-34.9,299.8,0.8248,0.2380,0.1871,0.4774,0.00,-0.37,0.07,43.243057,-0.040755,-7.19,1,435.29
333308,32.41,-4.6,-34.9,299.8,0.8248,0.2380,0.1871,0.4774,0.00,-0.37,0.07,43.243057,-0.040755,-7.19,1,435.29
333321,32.41,-4.8,-35.0,299.5,0.8232,0.2376,0.1898,0.4793,-0.46,-0.70,-0.07,43.243057,-0.040755,-7.19,1,435.29
333321,32.43,-4.8,-35.0,299.5,0.8232,0.2376,0.1898,0.4793,-0.46,-0.70,-0.07,43.243057,-0.040755,-7.19,1,435.29
333321,32.40,-4.8,-35.0,299.5,0.8232,0.2376,0.1898,0.4793,-0.46,-0.70,-0.07,43.243057,-0.040755,-7.19,1,435.29
333321,32.36,-4.8,-35.0,299.5,0.8232,0.2376,0.1898,0.4793,-0.46,-0.70,-0.07,43.243057,-0.040755,-7.19,1,435.29
333321,32.27,-4.8,-35.0,299.5,0.8232,0.2376,0.1898,0.4793,-0.46,-0.70,-0.07,43.243057,-0.040755,-7.19,1,435.29
333334,32.13,-5.0,-35.1,299.5,0.8228,0.2366,0.1920,0.4796,-0.15,-1.20,-0.34,43.243057,-0.040755,-7.19,1,435.29
333334,31.89,-5.0,-35.1,299.5,0.8228,0.2366,0.1920,0.4796,-0.15,-1.20,-0.34,43.243057,-0.040755,-7.19,1,435.29
333334,31.76,-5.0,-35.1,299.5,0.8228,0.2366,0.1920,0.4796,-0.15,-1.20,-0.34,43.243057,-0.040755,-7.19,1,435.29
333334,31.54,-5.0,-35.1,299.5,0.8228,0.2366,0.1920,0.4796,-0.15,-1.20,-0.34,43.243057,-0.040755,-7.19,1,435.29
333334,31.25,-5.0,-35.1,299.5,0.8228,0.2366,0.1920,0.4796,-0.15,-1.20,-0.34,43.243057,-0.040755,-7.19,1,435.29
333347,30.97,-5.7,-34.8,300.1,0.8259,0.2318,0.1947,0.4755,0.63,-0.37,-0.75,43.243057,-0.040755,-7.19,1,435.29
333347,30.68,-5.7,-34.8,300.1,0.8259,0.2318,0.1947,0.4755,0.63,-0.37,-0.75,43.243057,-0.040755,-7.19,1,435.29
333347,30.37,-5.7,-34.8,300.1,0.8259,0.2318,0.1947,0.4755,0.63,-0.37,-0.75,43.243057,-0.040755,-7.19,1,435.29
333347,30.17,-5.7,-34.8,300.1,0.8259,0.2318,0.1947,0.4755,0.63,-0.37,-0.75,43.243057,-0.040755,-7.19,1,435.29
333347,29.92,-5.7,-34.8,300.1,0.8259,0.2318,0.1947,0.4755,0.63,-0.37,-0.75,43.243057,-0.040755,-7.19,1,435.29
333359,28.65,-6.2,-34.4,300.5,0.8283,0.2277,0.1958,0.4729,0.27,-0.11,-0.57,43.243057,-0.040755,-7.07,1,435.29
333359,28.04,-6.2,-34.4,300.5,0.8283,0.2277,0.1958,0.4729,0.27,-0.11,-0.57,43.243057,-0.040755,-7.07,1,435.29
333359,27.96,-6.2,-34.4,300.5,0.8283,0.2277,0.1958,0.4729,0.27,-0.11,-0.57,43.243057,-0.040755,-7.07,1,435.29
333359,27.84,-6.2,-34.4,300.5,0.8283,0.2277,0.1958,0.4729,0.27,-0.11,-0.57,43.243057,-0.040755,-7.07,1,435.29
333359,27.60,-6.2,-34.4,300.5,0.8283,0.2277,0.1958,0.4729,0.27,-0.11,-0.57,43.243057,-0.040755,-7.07,1,435.29
333372,27.29,-6.6,-34.0,301.1,0.8317,0.2236,0.1962,0.4686,0.05,0.13,-0.20,43.243057,-0.040755,-7.07,1,435.29
333372,0.00,-6.6,-34.0,301.1,0.8317,0.2236,0.1962,0.4686,0.05,0.13,-0.20,43.243057,-0.040755,-7.07,1,435.29
333372,0.00,-6.6,-34.0,301.1,0.8317,0.2236,0.1962,0.4686,0.05,0.13,-0.20,43.243057,-0.040755,-7.07,1,435.29
333372,27.59,-6.6,-34.0,301.1,0.8317,0.2236,0.1962,0.4686,0.05,0.13,-0.20,43.243057,-0.040755,-7.07,1,435.29
333372,27.80,-6.6,-34.0,301.1,0.8317,0.2236,0.1962,0.4686,0.05,0.13,-0.20,43.243057,-0.040755,-7.07,1,435.29
333385,27.60,-7.0,-33.6,301.7,0.8349,0.2199,0.1963,0.4647,-0.11,-0.15,0.55,43.243057,-0.040755,-7.07,1,435.29
333385,27.34,-7.0,-33.6,301.7,0.8349,0.2199,0.1963,0.4647,-0.11,-0.15,0.55,43.243057,-0.040755,-7.07,1,435.29
333385,27.12,-7.0,-33.6,301.7,0.8349,0.2199,0.1963,0.4647,-0.11,-0.15,0.55,43.243057,-0.040755,-7.07,1,435.29
333385,26.88,-7.0,-33.6,301.7,0.8349,0.2199,0.1963,0.4647,-0.11,-0.15,0.55,43.243057,-0.040755,-7.07,1,435.29
333385,26.68,-7.0,-33.6,301.7,0.8349,0.2199,0.1963,0.4647,-0.11,-0.15,0.55,43.243057,-0.040755,-7.07,1,435.29
333398,26.50,-7.5,-32.6,302.7,0.8406,0.2130,0.1940,0.4584,-0.60,-0.31,0.25,43.243057,-0.040755,-7.07,1,435.29
333398,26.32,-7.5,-32.6,302.7,0.8406,0.2130,0.1940,0.4584,-0.60,-0.31,0.25,43.243057,-0.040755,-7.07,1,435.29
333398,26.07,-7.5,-32.6,302.7,0.8406,0.2130,0.1940,0.4584,-0.60,-0.31,0.25,43.243057,-0.040755,-7.07,1,435.29
333398,25.81,-7.5,-32.6,302.7,0.8406,0.2130,0.1940,0.4584,-0.60,-0.31,0.25,43.243057,-0.040755,-7.07,1,435.29
333398,25.55,-7.5,-32.6,302.7,0.8406,0.2130,0.1940,0.4584,-0.60,-0.31,0.25,43.243057,-0.040755,-7.07,1,435.29
333410,25.36,-7.3,-32.2,303.1,0.8431,0.2109,0.1907,0.4563,0.15,1.00,0.28,43.243057,-0.040755,-6.92,1,435.29
333410,25.15,-7.3,-32.2,303.1,0.8431,0.2109,0.1907,0.4563,0.15,1.00,0.28,43.243057,-0.040755,-6.92,1,435.29
333410,25.03,-7.3,-32.2,303.1,0.8431,0.2109,0.1907,0.4563,0.15,1.00,0.28,43.243057,-0.040755,-6.92,1,435.29
333410,24.90,-7.3,-32.2,303.1,0.8431,0.2109,0.1907,0.4563,0.15,1.00,0.28,43.243057,-0.040755,-6.92,1,435.29
333410,24.82,-7.3,-32.2,303.1,0.8431,0.2109,0.1907,0.4563,0.15,1.00,0.28,43.243057,-0.040755,-6.92,1,435.29
333423,24.77,-7.2,-31.7,303.4,0.8454,0.2083,0.1867,0.4548,-0.75,-1.21,-0.13,43.243057,-0.040755,-6.92,1,435.29
333423,24.71,-7.2,-31.7,303.4,0.8454,0.2083,0.1867,0.4548,-0.75,-1.21,-0.13,43.243057,-0.040755,-6.92,1,435.29
333423,24.67,-7.2,-31.7,303.4,0.8454,0.2083,0.1867,0.4548,-0.75,-1.21,-0.13,43.243057,-0.040755,-6.92,1,435.29
333423,24.65,-7.2,-31.7,303.4,0.8454,0.2083,0.1867,0.4548,-0.75,-1.21,-0.13,43.243057,-0.040755,-6.92,1,435.29
333423,24.62,-7.2,-31.7,303.4,0.8454,0.2083,0.1867,0.4548,-0.75,-1.21,-0.13,43.243057,-0.040755,-6.92,1,435.29
333436,24.62,-7.1,-31.3,303.8,0.8480,0.2067,0.1840,0.4517,-0.49,-0.37,-0.03,43.243057,-0.040755,-6.92,1,435.29
333436,24.61,-7.1,-31.3,303.8,0.8480,0.2067,0.1840,0.4517,-0.49,-0.37,-0.03,43.243057,-0.040755,-6.92,1,435.29
333436,24.60,-7.1,-31.3,303.8,0.8480,0.2067,0.1840,0.4517,-0.49,-0.37,-0.03,43.243057,-0.040755,-6.92,1,435.29
333436,24.61,-7.1,-31.3,303.8,0.8480,0.2067,0.1840,0.4517,-0.49,-0.37,-0.03,43.243057,-0.040755,-6.92,1,435.29
333436,24.62,-7.1,-31.3,303.8,0.8480,0.2067,0.1840,0.4517,-0.49,-0.37,-0.03,43.243057,-0.040755,-6.92,1,435.29
333449,24.61,-6.9,-31.1,304.3,0.8505,0.2073,0.1804,0.4483,-0.05,0.93,-0.15,43.243057,-0.040755,-6.92,1,435.29
333449,24.63,-6.9,-31.1,304.3,0.8505,0.2073,0.1804,0.4483,-0.05,0.93,-0.15,43.243057,-0.040755,-6.92,1,435.29
333449,24.62,-6.9,-31.1,304.3,0.8505,0.2073,0.1804,0.4483,-0.05,0.93,-0.15,43.243057,-0.040755,-6.92,1,435.29
333449,24.62,-6.9,-31.1,304.3,0.8505,0.2073,0.1804,0.4483,-0.05,0.93,-0.15,43.243057,-0.040755,-6.92,1,435.29
333449,24.64,-6.9,-31.1,304.3,0.8505,0.2073,0.1804,0.4483,-0.05,0.93,-0.15,43.243057,-0.040755,-6.92,1,435.29
333461,24.64,-6.6,-31.1,304.3,0.8504,0.2083,0.1787,0.4488,-0.45,0.23,-0.15,43.243057,-0.040755,-6.78,1,435.29
333461,24.65,-6.6,-31.1,304.3,0.8504,0.2083,0.1787,0.4488,-0.45,0.23,-0.15,43.243057,-0.040755,-6.78,1,435.29
333461,24.67,-6.6,-31.1,304.3,0.8504,0.2083,0.1787,0.4488,-0.45,0.23,-0.15,43.243057,-0.040755,-6.78,1,435.29
333461,24.65,-6.6,-31.1,304.3,0.8504,0.2083,0.1787,0.4488,-0.45,0.23,-0.15,43.243057,-0.040755,-6.78,1,435.29
